{"datasetJSONCreationDateTime":"2026-05-05T17:10:43","datasetJSONVersion":"1.1.0","fileOID":"/cloud/project/pilot5-submission/pilot5-input/adamdata/adadas","dbLastModifiedDateTime":"2026-05-05T17:10","originator":"R Submission Pilot 5","sourceSystem":{"name":"R on linux-gnu 6.17.0-1013-aws","version":"R version 4.4.3 (2025-02-28)"},"studyOID":"Pilot 5","metaDataVersionOID":"MDV.TDF_ADaM.ADaM-IG.1.1","metaDataRef":"/cloud/project/pilot5-submission/pilot5-input/adamdata/define.xml","itemGroupOID":"IG.ADADAS","records":12463,"name":"ADADAS","label":"ADAS-Cog Analysis","columns":[{"itemOID":"IT.ADADAS.STUDYID","name":"STUDYID","label":"Study Identifier","dataType":"string","length":12},{"itemOID":"IT.ADADAS.SITEID","name":"SITEID","label":"Study Site Identifier","dataType":"string","length":3},{"itemOID":"IT.ADADAS.SITEGR1","name":"SITEGR1","label":"Pooled Site Group 1","dataType":"string","length":3},{"itemOID":"IT.ADADAS.USUBJID","name":"USUBJID","label":"Unique Subject Identifier","dataType":"string","length":11,"keySequence":1},{"itemOID":"IT.ADADAS.TRTSDT","name":"TRTSDT","label":"Date of First Exposure to Treatment","dataType":"date","displayFormat":"DATE9.","targetDataType":"integer"},{"itemOID":"IT.ADADAS.TRTEDT","name":"TRTEDT","label":"Date of Last Exposure to Treatment","dataType":"date","displayFormat":"DATE9.","targetDataType":"integer"},{"itemOID":"IT.ADADAS.TRTP","name":"TRTP","label":"Planned Treatment","dataType":"string","length":20},{"itemOID":"IT.ADADAS.TRTPN","name":"TRTPN","label":"Planned Treatment (N)","dataType":"integer"},{"itemOID":"IT.ADADAS.AGE","name":"AGE","label":"Age","dataType":"integer"},{"itemOID":"IT.ADADAS.AGEGR1","name":"AGEGR1","label":"Pooled Age Group 1","dataType":"string","length":5},{"itemOID":"IT.ADADAS.AGEGR1N","name":"AGEGR1N","label":"Pooled Age Group 1 (N)","dataType":"integer"},{"itemOID":"IT.ADADAS.RACE","name":"RACE","label":"Race","dataType":"string","length":32},{"itemOID":"IT.ADADAS.RACEN","name":"RACEN","label":"Race (N)","dataType":"integer"},{"itemOID":"IT.ADADAS.SEX","name":"SEX","label":"Sex","dataType":"string","length":1},{"itemOID":"IT.ADADAS.ITTFL","name":"ITTFL","label":"Intent-To-Treat Population Flag","dataType":"string","length":1},{"itemOID":"IT.ADADAS.EFFFL","name":"EFFFL","label":"Efficacy Population Flag","dataType":"string","length":1},{"itemOID":"IT.ADADAS.COMP24FL","name":"COMP24FL","label":"Completers of Week 24 Population Flag","dataType":"string","length":1},{"itemOID":"IT.ADADAS.AVISIT","name":"AVISIT","label":"Analysis Visit","dataType":"string","length":16,"keySequence":3},{"itemOID":"IT.ADADAS.AVISITN","name":"AVISITN","label":"Analysis Visit (N)","dataType":"integer"},{"itemOID":"IT.ADADAS.VISIT","name":"VISIT","label":"Visit Name","dataType":"string","length":19},{"itemOID":"IT.ADADAS.VISITNUM","name":"VISITNUM","label":"Visit Number","dataType":"decimal","targetDataType":"decimal"},{"itemOID":"IT.ADADAS.ADY","name":"ADY","label":"Analysis Relative Day","dataType":"integer"},{"itemOID":"IT.ADADAS.ADT","name":"ADT","label":"Analysis Date","dataType":"date","keySequence":4,"displayFormat":"DATE9.","targetDataType":"integer"},{"itemOID":"IT.ADADAS.PARAM","name":"PARAM","label":"Parameter","dataType":"string","length":100},{"itemOID":"IT.ADADAS.PARAMCD","name":"PARAMCD","label":"Parameter Code","dataType":"string","length":8,"keySequence":2},{"itemOID":"IT.ADADAS.PARAMN","name":"PARAMN","label":"Parameter (N)","dataType":"integer"},{"itemOID":"IT.ADADAS.AVAL","name":"AVAL","label":"Analysis Value","dataType":"decimal","targetDataType":"decimal"},{"itemOID":"IT.ADADAS.BASE","name":"BASE","label":"Baseline Value","dataType":"decimal","targetDataType":"decimal"},{"itemOID":"IT.ADADAS.CHG","name":"CHG","label":"Change from Baseline","dataType":"decimal","targetDataType":"decimal"},{"itemOID":"IT.ADADAS.PCHG","name":"PCHG","label":"Percent Change from Baseline","dataType":"decimal","targetDataType":"decimal"},{"itemOID":"IT.ADADAS.ABLFL","name":"ABLFL","label":"Baseline Record Flag","dataType":"string","length":1},{"itemOID":"IT.ADADAS.ANL01FL","name":"ANL01FL","label":"Analysis Flag 01","dataType":"string","length":1},{"itemOID":"IT.ADADAS.DTYPE","name":"DTYPE","label":"Derivation Type","dataType":"string","length":7},{"itemOID":"IT.ADADAS.AWRANGE","name":"AWRANGE","label":"Analysis Window Valid Relative Range","dataType":"string","length":9},{"itemOID":"IT.ADADAS.AWTARGET","name":"AWTARGET","label":"Analysis Window Target","dataType":"integer"},{"itemOID":"IT.ADADAS.AWTDIFF","name":"AWTDIFF","label":"Analysis Window Diff from Target","dataType":"integer"},{"itemOID":"IT.ADADAS.AWLO","name":"AWLO","label":"Analysis Window Beginning Timepoint","dataType":"integer"},{"itemOID":"IT.ADADAS.AWHI","name":"AWHI","label":"Analysis Window Ending Timepoint","dataType":"integer"},{"itemOID":"IT.ADADAS.AWU","name":"AWU","label":"Analysis Window Unit","dataType":"string","length":4},{"itemOID":"IT.ADADAS.QSSEQ","name":"QSSEQ","label":"Sequence Number","dataType":"integer"}],"rows":[["CDISCPILOT01","701","701","01-701-1015","2014-01-02","2014-07-02","Placebo",0,63.0,"<65",1,"WHITE",1,"F","Y","Y","Y","Baseline",0.0,"BASELINE","  3",1.0,"2014-01-02","Word Recall Task","ACITM01",1.0,"  3.00000000000000","  3.00000000000000","                   NA","                    NA","Y","Y","","<=1",1.0,0.0,null,1.0,"DAYS",5001.0],["CDISCPILOT01","701","701","01-701-1015","2014-01-02","2014-07-02","Placebo",0,63.0,"<65",1,"WHITE",1,"F","Y","Y","Y","Week 16",16.0,"WEEK 16"," 10",126.0,"2014-05-07","Word Recall Task","ACITM01",1.0,"  4.00000000000000","  3.00000000000000","   1.0000000000000000","   33.3333333333333286","","Y","","85-140",112.0,14.0,85.0,140.0,"DAYS",5031.0],["CDISCPILOT01","701","701","01-701-1015","2014-01-02","2014-07-02","Placebo",0,63.0,"<65",1,"WHITE",1,"F","Y","Y","Y","Week 24",24.0,"WEEK 24"," 12",168.0,"2014-06-18","Word Recall Task","ACITM01",1.0,"  3.00000000000000","  3.00000000000000","   0.0000000000000000","    0.0000000000000000","","Y","",">140",168.0,0.0,141.0,null,"DAYS",5046.0],["CDISCPILOT01","701","701","01-701-1015","2014-01-02","2014-07-02","Placebo",0,63.0,"<65",1,"WHITE",1,"F","Y","Y","Y","Week 8",8.0,"WEEK 8","  8",63.0,"2014-03-05","Word Recall Task","ACITM01",1.0,"  2.00000000000000","  3.00000000000000","  -1.0000000000000000","  -33.3333333333333286","","Y","","2-84",56.0,7.0,2.0,84.0,"DAYS",5016.0],["CDISCPILOT01","701","701","01-701-1015","2014-01-02","2014-07-02","Placebo",0,63.0,"<65",1,"WHITE",1,"F","Y","Y","Y","Baseline",0.0,"BASELINE","  3",1.0,"2014-01-02","Naming Objects And Fingers (Refer To 5 C","ACITM02",2.0,"  1.00000000000000","  1.00000000000000","                   NA","                    NA","Y","Y","","<=1",1.0,0.0,null,1.0,"DAYS",5002.0],["CDISCPILOT01","701","701","01-701-1015","2014-01-02","2014-07-02","Placebo",0,63.0,"<65",1,"WHITE",1,"F","Y","Y","Y","Week 16",16.0,"WEEK 16"," 10",126.0,"2014-05-07","Naming Objects And Fingers (Refer To 5 C","ACITM02",2.0,"  0.00000000000000","  1.00000000000000","  -1.0000000000000000"," -100.0000000000000000","","Y","","85-140",112.0,14.0,85.0,140.0,"DAYS",5032.0],["CDISCPILOT01","701","701","01-701-1015","2014-01-02","2014-07-02","Placebo",0,63.0,"<65",1,"WHITE",1,"F","Y","Y","Y","Week 24",24.0,"WEEK 24"," 12",168.0,"2014-06-18","Naming Objects And Fingers (Refer To 5 C","ACITM02",2.0,"  0.00000000000000","  1.00000000000000","  -1.0000000000000000"," -100.0000000000000000","","Y","",">140",168.0,0.0,141.0,null,"DAYS",5047.0],["CDISCPILOT01","701","701","01-701-1015","2014-01-02","2014-07-02","Placebo",0,63.0,"<65",1,"WHITE",1,"F","Y","Y","Y","Week 8",8.0,"WEEK 8","  8",63.0,"2014-03-05","Naming Objects And Fingers (Refer To 5 C","ACITM02",2.0,"  0.00000000000000","  1.00000000000000","  -1.0000000000000000"," -100.0000000000000000","","Y","","2-84",56.0,7.0,2.0,84.0,"DAYS",5017.0],["CDISCPILOT01","701","701","01-701-1015","2014-01-02","2014-07-02","Placebo",0,63.0,"<65",1,"WHITE",1,"F","Y","Y","Y","Baseline",0.0,"BASELINE","  3",1.0,"2014-01-02","Delayed Word Recall","ACITM03",3.0,"  3.00000000000000","  3.00000000000000","                   NA","                    NA","Y","Y","","<=1",1.0,0.0,null,1.0,"DAYS",5003.0],["CDISCPILOT01","701","701","01-701-1015","2014-01-02","2014-07-02","Placebo",0,63.0,"<65",1,"WHITE",1,"F","Y","Y","Y","Week 16",16.0,"WEEK 16"," 10",126.0,"2014-05-07","Delayed Word Recall","ACITM03",3.0,"  1.00000000000000","  3.00000000000000","  -2.0000000000000000","  -66.6666666666666572","","Y","","85-140",112.0,14.0,85.0,140.0,"DAYS",5033.0],["CDISCPILOT01","701","701","01-701-1015","2014-01-02","2014-07-02","Placebo",0,63.0,"<65",1,"WHITE",1,"F","Y","Y","Y","Week 24",24.0,"WEEK 24"," 12",168.0,"2014-06-18","Delayed Word Recall","ACITM03",3.0,"  2.00000000000000","  3.00000000000000","  -1.0000000000000000","  -33.3333333333333286","","Y","",">140",168.0,0.0,141.0,null,"DAYS",5048.0],["CDISCPILOT01","701","701","01-701-1015","2014-01-02","2014-07-02","Placebo",0,63.0,"<65",1,"WHITE",1,"F","Y","Y","Y","Week 8",8.0,"WEEK 8","  8",63.0,"2014-03-05","Delayed Word Recall","ACITM03",3.0,"  3.00000000000000","  3.00000000000000","   0.0000000000000000","    0.0000000000000000","","Y","","2-84",56.0,7.0,2.0,84.0,"DAYS",5018.0],["CDISCPILOT01","701","701","01-701-1015","2014-01-02","2014-07-02","Placebo",0,63.0,"<65",1,"WHITE",1,"F","Y","Y","Y","Baseline",0.0,"BASELINE","  3",1.0,"2014-01-02","Commands","ACITM04",4.0,"  0.00000000000000","  0.00000000000000","                   NA","                    NA","Y","Y","","<=1",1.0,0.0,null,1.0,"DAYS",5004.0],["CDISCPILOT01","701","701","01-701-1015","2014-01-02","2014-07-02","Placebo",0,63.0,"<65",1,"WHITE",1,"F","Y","Y","Y","Week 16",16.0,"WEEK 16"," 10",126.0,"2014-05-07","Commands","ACITM04",4.0,"  0.00000000000000","  0.00000000000000","   0.0000000000000000","                    NA","","Y","","85-140",112.0,14.0,85.0,140.0,"DAYS",5034.0],["CDISCPILOT01","701","701","01-701-1015","2014-01-02","2014-07-02","Placebo",0,63.0,"<65",1,"WHITE",1,"F","Y","Y","Y","Week 24",24.0,"WEEK 24"," 12",168.0,"2014-06-18","Commands","ACITM04",4.0,"  0.00000000000000","  0.00000000000000","   0.0000000000000000","                    NA","","Y","",">140",168.0,0.0,141.0,null,"DAYS",5049.0],["CDISCPILOT01","701","701","01-701-1015","2014-01-02","2014-07-02","Placebo",0,63.0,"<65",1,"WHITE",1,"F","Y","Y","Y","Week 8",8.0,"WEEK 8","  8",63.0,"2014-03-05","Commands","ACITM04",4.0,"  0.00000000000000","  0.00000000000000","   0.0000000000000000","                    NA","","Y","","2-84",56.0,7.0,2.0,84.0,"DAYS",5019.0],["CDISCPILOT01","701","701","01-701-1015","2014-01-02","2014-07-02","Placebo",0,63.0,"<65",1,"WHITE",1,"F","Y","Y","Y","Baseline",0.0,"BASELINE","  3",1.0,"2014-01-02","Constructional Praxis","ACITM05",5.0,"  3.00000000000000","  3.00000000000000","                   NA","                    NA","Y","Y","","<=1",1.0,0.0,null,1.0,"DAYS",5005.0],["CDISCPILOT01","701","701","01-701-1015","2014-01-02","2014-07-02","Placebo",0,63.0,"<65",1,"WHITE",1,"F","Y","Y","Y","Week 16",16.0,"WEEK 16"," 10",126.0,"2014-05-07","Constructional Praxis","ACITM05",5.0,"  2.00000000000000","  3.00000000000000","  -1.0000000000000000","  -33.3333333333333286","","Y","","85-140",112.0,14.0,85.0,140.0,"DAYS",5035.0],["CDISCPILOT01","701","701","01-701-1015","2014-01-02","2014-07-02","Placebo",0,63.0,"<65",1,"WHITE",1,"F","Y","Y","Y","Week 24",24.0,"WEEK 24"," 12",168.0,"2014-06-18","Constructional Praxis","ACITM05",5.0,"  3.00000000000000","  3.00000000000000","   0.0000000000000000","    0.0000000000000000","","Y","",">140",168.0,0.0,141.0,null,"DAYS",5050.0],["CDISCPILOT01","701","701","01-701-1015","2014-01-02","2014-07-02","Placebo",0,63.0,"<65",1,"WHITE",1,"F","Y","Y","Y","Week 8",8.0,"WEEK 8","  8",63.0,"2014-03-05","Constructional Praxis","ACITM05",5.0,"  2.00000000000000","  3.00000000000000","  -1.0000000000000000","  -33.3333333333333286","","Y","","2-84",56.0,7.0,2.0,84.0,"DAYS",5020.0],["CDISCPILOT01","701","701","01-701-1015","2014-01-02","2014-07-02","Placebo",0,63.0,"<65",1,"WHITE",1,"F","Y","Y","Y","Baseline",0.0,"BASELINE","  3",1.0,"2014-01-02","Ideational Praxis","ACITM06",6.0,"  0.00000000000000","  0.00000000000000","                   NA","                    NA","Y","Y","","<=1",1.0,0.0,null,1.0,"DAYS",5006.0],["CDISCPILOT01","701","701","01-701-1015","2014-01-02","2014-07-02","Placebo",0,63.0,"<65",1,"WHITE",1,"F","Y","Y","Y","Week 16",16.0,"WEEK 16"," 10",126.0,"2014-05-07","Ideational Praxis","ACITM06",6.0,"  0.00000000000000","  0.00000000000000","   0.0000000000000000","                    NA","","Y","","85-140",112.0,14.0,85.0,140.0,"DAYS",5036.0],["CDISCPILOT01","701","701","01-701-1015","2014-01-02","2014-07-02","Placebo",0,63.0,"<65",1,"WHITE",1,"F","Y","Y","Y","Week 24",24.0,"WEEK 24"," 12",168.0,"2014-06-18","Ideational Praxis","ACITM06",6.0,"  0.00000000000000","  0.00000000000000","   0.0000000000000000","                    NA","","Y","",">140",168.0,0.0,141.0,null,"DAYS",5051.0],["CDISCPILOT01","701","701","01-701-1015","2014-01-02","2014-07-02","Placebo",0,63.0,"<65",1,"WHITE",1,"F","Y","Y","Y","Week 8",8.0,"WEEK 8","  8",63.0,"2014-03-05","Ideational Praxis","ACITM06",6.0,"  0.00000000000000","  0.00000000000000","   0.0000000000000000","                    NA","","Y","","2-84",56.0,7.0,2.0,84.0,"DAYS",5021.0],["CDISCPILOT01","701","701","01-701-1015","2014-01-02","2014-07-02","Placebo",0,63.0,"<65",1,"WHITE",1,"F","Y","Y","Y","Baseline",0.0,"BASELINE","  3",1.0,"2014-01-02","Orientation","ACITM07",7.0,"  1.00000000000000","  1.00000000000000","                   NA","                    NA","Y","Y","","<=1",1.0,0.0,null,1.0,"DAYS",5007.0],["CDISCPILOT01","701","701","01-701-1015","2014-01-02","2014-07-02","Placebo",0,63.0,"<65",1,"WHITE",1,"F","Y","Y","Y","Week 16",16.0,"WEEK 16"," 10",126.0,"2014-05-07","Orientation","ACITM07",7.0,"  0.00000000000000","  1.00000000000000","  -1.0000000000000000"," -100.0000000000000000","","Y","","85-140",112.0,14.0,85.0,140.0,"DAYS",5037.0],["CDISCPILOT01","701","701","01-701-1015","2014-01-02","2014-07-02","Placebo",0,63.0,"<65",1,"WHITE",1,"F","Y","Y","Y","Week 24",24.0,"WEEK 24"," 12",168.0,"2014-06-18","Orientation","ACITM07",7.0,"  1.00000000000000","  1.00000000000000","   0.0000000000000000","    0.0000000000000000","","Y","",">140",168.0,0.0,141.0,null,"DAYS",5052.0],["CDISCPILOT01","701","701","01-701-1015","2014-01-02","2014-07-02","Placebo",0,63.0,"<65",1,"WHITE",1,"F","Y","Y","Y","Week 8",8.0,"WEEK 8","  8",63.0,"2014-03-05","Orientation","ACITM07",7.0,"  0.00000000000000","  1.00000000000000","  -1.0000000000000000"," -100.0000000000000000","","Y","","2-84",56.0,7.0,2.0,84.0,"DAYS",5022.0],["CDISCPILOT01","701","701","01-701-1015","2014-01-02","2014-07-02","Placebo",0,63.0,"<65",1,"WHITE",1,"F","Y","Y","Y","Baseline",0.0,"BASELINE","  3",1.0,"2014-01-02","Word Recognition","ACITM08",8.0,"  1.00000000000000","  1.00000000000000","                   NA","                    NA","Y","Y","","<=1",1.0,0.0,null,1.0,"DAYS",5008.0],["CDISCPILOT01","701","701","01-701-1015","2014-01-02","2014-07-02","Placebo",0,63.0,"<65",1,"WHITE",1,"F","Y","Y","Y","Week 16",16.0,"WEEK 16"," 10",126.0,"2014-05-07","Word Recognition","ACITM08",8.0,"  1.00000000000000","  1.00000000000000","   0.0000000000000000","    0.0000000000000000","","Y","","85-140",112.0,14.0,85.0,140.0,"DAYS",5038.0],["CDISCPILOT01","701","701","01-701-1015","2014-01-02","2014-07-02","Placebo",0,63.0,"<65",1,"WHITE",1,"F","Y","Y","Y","Week 24",24.0,"WEEK 24"," 12",168.0,"2014-06-18","Word Recognition","ACITM08",8.0,"  1.00000000000000","  1.00000000000000","   0.0000000000000000","    0.0000000000000000","","Y","",">140",168.0,0.0,141.0,null,"DAYS",5053.0],["CDISCPILOT01","701","701","01-701-1015","2014-01-02","2014-07-02","Placebo",0,63.0,"<65",1,"WHITE",1,"F","Y","Y","Y","Week 8",8.0,"WEEK 8","  8",63.0,"2014-03-05","Word Recognition","ACITM08",8.0,"  0.00000000000000","  1.00000000000000","  -1.0000000000000000"," -100.0000000000000000","","Y","","2-84",56.0,7.0,2.0,84.0,"DAYS",5023.0],["CDISCPILOT01","701","701","01-701-1015","2014-01-02","2014-07-02","Placebo",0,63.0,"<65",1,"WHITE",1,"F","Y","Y","Y","Baseline",0.0,"BASELINE","  3",1.0,"2014-01-02","Attention/Visual Search Task","ACITM09",9.0," 23.00000000000000"," 23.00000000000000","                   NA","                    NA","Y","Y","","<=1",1.0,0.0,null,1.0,"DAYS",5009.0],["CDISCPILOT01","701","701","01-701-1015","2014-01-02","2014-07-02","Placebo",0,63.0,"<65",1,"WHITE",1,"F","Y","Y","Y","Week 16",16.0,"WEEK 16"," 10",126.0,"2014-05-07","Attention/Visual Search Task","ACITM09",9.0," 34.00000000000000"," 23.00000000000000","  11.0000000000000000","   47.8260869565217419","","Y","","85-140",112.0,14.0,85.0,140.0,"DAYS",5039.0],["CDISCPILOT01","701","701","01-701-1015","2014-01-02","2014-07-02","Placebo",0,63.0,"<65",1,"WHITE",1,"F","Y","Y","Y","Week 24",24.0,"WEEK 24"," 12",168.0,"2014-06-18","Attention/Visual Search Task","ACITM09",9.0," 39.00000000000000"," 23.00000000000000","  16.0000000000000000","   69.5652173913043441","","Y","",">140",168.0,0.0,141.0,null,"DAYS",5054.0],["CDISCPILOT01","701","701","01-701-1015","2014-01-02","2014-07-02","Placebo",0,63.0,"<65",1,"WHITE",1,"F","Y","Y","Y","Week 8",8.0,"WEEK 8","  8",63.0,"2014-03-05","Attention/Visual Search Task","ACITM09",9.0," 27.00000000000000"," 23.00000000000000","   4.0000000000000000","   17.3913043478260860","","Y","","2-84",56.0,7.0,2.0,84.0,"DAYS",5024.0],["CDISCPILOT01","701","701","01-701-1015","2014-01-02","2014-07-02","Placebo",0,63.0,"<65",1,"WHITE",1,"F","Y","Y","Y","Baseline",0.0,"BASELINE","  3",1.0,"2014-01-02","Maze Solution","ACITM10",10.0,"  3.00000000000000","  3.00000000000000","                   NA","                    NA","Y","Y","","<=1",1.0,0.0,null,1.0,"DAYS",5010.0],["CDISCPILOT01","701","701","01-701-1015","2014-01-02","2014-07-02","Placebo",0,63.0,"<65",1,"WHITE",1,"F","Y","Y","Y","Week 16",16.0,"WEEK 16"," 10",126.0,"2014-05-07","Maze Solution","ACITM10",10.0,"  4.00000000000000","  3.00000000000000","   1.0000000000000000","   33.3333333333333286","","Y","","85-140",112.0,14.0,85.0,140.0,"DAYS",5040.0],["CDISCPILOT01","701","701","01-701-1015","2014-01-02","2014-07-02","Placebo",0,63.0,"<65",1,"WHITE",1,"F","Y","Y","Y","Week 24",24.0,"WEEK 24"," 12",168.0,"2014-06-18","Maze Solution","ACITM10",10.0,"  3.00000000000000","  3.00000000000000","   0.0000000000000000","    0.0000000000000000","","Y","",">140",168.0,0.0,141.0,null,"DAYS",5055.0],["CDISCPILOT01","701","701","01-701-1015","2014-01-02","2014-07-02","Placebo",0,63.0,"<65",1,"WHITE",1,"F","Y","Y","Y","Week 8",8.0,"WEEK 8","  8",63.0,"2014-03-05","Maze Solution","ACITM10",10.0,"  4.00000000000000","  3.00000000000000","   1.0000000000000000","   33.3333333333333286","","Y","","2-84",56.0,7.0,2.0,84.0,"DAYS",5025.0],["CDISCPILOT01","701","701","01-701-1015","2014-01-02","2014-07-02","Placebo",0,63.0,"<65",1,"WHITE",1,"F","Y","Y","Y","Baseline",0.0,"BASELINE","  3",1.0,"2014-01-02","Spoken Language Ability","ACITM11",11.0,"  1.00000000000000","  1.00000000000000","                   NA","                    NA","Y","Y","","<=1",1.0,0.0,null,1.0,"DAYS",5011.0],["CDISCPILOT01","701","701","01-701-1015","2014-01-02","2014-07-02","Placebo",0,63.0,"<65",1,"WHITE",1,"F","Y","Y","Y","Week 16",16.0,"WEEK 16"," 10",126.0,"2014-05-07","Spoken Language Ability","ACITM11",11.0,"  1.00000000000000","  1.00000000000000","   0.0000000000000000","    0.0000000000000000","","Y","","85-140",112.0,14.0,85.0,140.0,"DAYS",5041.0],["CDISCPILOT01","701","701","01-701-1015","2014-01-02","2014-07-02","Placebo",0,63.0,"<65",1,"WHITE",1,"F","Y","Y","Y","Week 24",24.0,"WEEK 24"," 12",168.0,"2014-06-18","Spoken Language Ability","ACITM11",11.0,"  0.00000000000000","  1.00000000000000","  -1.0000000000000000"," -100.0000000000000000","","Y","",">140",168.0,0.0,141.0,null,"DAYS",5056.0],["CDISCPILOT01","701","701","01-701-1015","2014-01-02","2014-07-02","Placebo",0,63.0,"<65",1,"WHITE",1,"F","Y","Y","Y","Week 8",8.0,"WEEK 8","  8",63.0,"2014-03-05","Spoken Language Ability","ACITM11",11.0,"  1.00000000000000","  1.00000000000000","   0.0000000000000000","    0.0000000000000000","","Y","","2-84",56.0,7.0,2.0,84.0,"DAYS",5026.0],["CDISCPILOT01","701","701","01-701-1015","2014-01-02","2014-07-02","Placebo",0,63.0,"<65",1,"WHITE",1,"F","Y","Y","Y","Baseline",0.0,"BASELINE","  3",1.0,"2014-01-02","Comprehension Of Spoken Language","ACITM12",12.0,"  1.00000000000000","  1.00000000000000","                   NA","                    NA","Y","Y","","<=1",1.0,0.0,null,1.0,"DAYS",5012.0],["CDISCPILOT01","701","701","01-701-1015","2014-01-02","2014-07-02","Placebo",0,63.0,"<65",1,"WHITE",1,"F","Y","Y","Y","Week 16",16.0,"WEEK 16"," 10",126.0,"2014-05-07","Comprehension Of Spoken Language","ACITM12",12.0,"  1.00000000000000","  1.00000000000000","   0.0000000000000000","    0.0000000000000000","","Y","","85-140",112.0,14.0,85.0,140.0,"DAYS",5042.0],["CDISCPILOT01","701","701","01-701-1015","2014-01-02","2014-07-02","Placebo",0,63.0,"<65",1,"WHITE",1,"F","Y","Y","Y","Week 24",24.0,"WEEK 24"," 12",168.0,"2014-06-18","Comprehension Of Spoken Language","ACITM12",12.0,"  0.00000000000000","  1.00000000000000","  -1.0000000000000000"," -100.0000000000000000","","Y","",">140",168.0,0.0,141.0,null,"DAYS",5057.0],["CDISCPILOT01","701","701","01-701-1015","2014-01-02","2014-07-02","Placebo",0,63.0,"<65",1,"WHITE",1,"F","Y","Y","Y","Week 8",8.0,"WEEK 8","  8",63.0,"2014-03-05","Comprehension Of Spoken Language","ACITM12",12.0,"  1.00000000000000","  1.00000000000000","   0.0000000000000000","    0.0000000000000000","","Y","","2-84",56.0,7.0,2.0,84.0,"DAYS",5027.0],["CDISCPILOT01","701","701","01-701-1015","2014-01-02","2014-07-02","Placebo",0,63.0,"<65",1,"WHITE",1,"F","Y","Y","Y","Baseline",0.0,"BASELINE","  3",1.0,"2014-01-02","Word Finding Difficulty In Spontaneous S","ACITM13",13.0,"  1.00000000000000","  1.00000000000000","                   NA","                    NA","Y","Y","","<=1",1.0,0.0,null,1.0,"DAYS",5013.0],["CDISCPILOT01","701","701","01-701-1015","2014-01-02","2014-07-02","Placebo",0,63.0,"<65",1,"WHITE",1,"F","Y","Y","Y","Week 16",16.0,"WEEK 16"," 10",126.0,"2014-05-07","Word Finding Difficulty In Spontaneous S","ACITM13",13.0,"  1.00000000000000","  1.00000000000000","   0.0000000000000000","    0.0000000000000000","","Y","","85-140",112.0,14.0,85.0,140.0,"DAYS",5043.0],["CDISCPILOT01","701","701","01-701-1015","2014-01-02","2014-07-02","Placebo",0,63.0,"<65",1,"WHITE",1,"F","Y","Y","Y","Week 24",24.0,"WEEK 24"," 12",168.0,"2014-06-18","Word Finding Difficulty In Spontaneous S","ACITM13",13.0,"  0.00000000000000","  1.00000000000000","  -1.0000000000000000"," -100.0000000000000000","","Y","",">140",168.0,0.0,141.0,null,"DAYS",5058.0],["CDISCPILOT01","701","701","01-701-1015","2014-01-02","2014-07-02","Placebo",0,63.0,"<65",1,"WHITE",1,"F","Y","Y","Y","Week 8",8.0,"WEEK 8","  8",63.0,"2014-03-05","Word Finding Difficulty In Spontaneous S","ACITM13",13.0,"  1.00000000000000","  1.00000000000000","   0.0000000000000000","    0.0000000000000000","","Y","","2-84",56.0,7.0,2.0,84.0,"DAYS",5028.0],["CDISCPILOT01","701","701","01-701-1015","2014-01-02","2014-07-02","Placebo",0,63.0,"<65",1,"WHITE",1,"F","Y","Y","Y","Baseline",0.0,"BASELINE","  3",1.0,"2014-01-02","Recall Of Test Instructions","ACITM14",14.0,"  1.00000000000000","  1.00000000000000","                   NA","                    NA","Y","Y","","<=1",1.0,0.0,null,1.0,"DAYS",5014.0],["CDISCPILOT01","701","701","01-701-1015","2014-01-02","2014-07-02","Placebo",0,63.0,"<65",1,"WHITE",1,"F","Y","Y","Y","Week 16",16.0,"WEEK 16"," 10",126.0,"2014-05-07","Recall Of Test Instructions","ACITM14",14.0,"  1.00000000000000","  1.00000000000000","   0.0000000000000000","    0.0000000000000000","","Y","","85-140",112.0,14.0,85.0,140.0,"DAYS",5044.0],["CDISCPILOT01","701","701","01-701-1015","2014-01-02","2014-07-02","Placebo",0,63.0,"<65",1,"WHITE",1,"F","Y","Y","Y","Week 24",24.0,"WEEK 24"," 12",168.0,"2014-06-18","Recall Of Test Instructions","ACITM14",14.0,"  0.00000000000000","  1.00000000000000","  -1.0000000000000000"," -100.0000000000000000","","Y","",">140",168.0,0.0,141.0,null,"DAYS",5059.0],["CDISCPILOT01","701","701","01-701-1015","2014-01-02","2014-07-02","Placebo",0,63.0,"<65",1,"WHITE",1,"F","Y","Y","Y","Week 8",8.0,"WEEK 8","  8",63.0,"2014-03-05","Recall Of Test Instructions","ACITM14",14.0,"  1.00000000000000","  1.00000000000000","   0.0000000000000000","    0.0000000000000000","","Y","","2-84",56.0,7.0,2.0,84.0,"DAYS",5029.0],["CDISCPILOT01","701","701","01-701-1015","2014-01-02","2014-07-02","Placebo",0,63.0,"<65",1,"WHITE",1,"F","Y","Y","Y","Baseline",0.0,"BASELINE","  3",1.0,"2014-01-02","Adas-Cog(11) Subscore","ACTOT",15.0," 13.00000000000000"," 13.00000000000000","                   NA","                    NA","Y","Y","","<=1",1.0,0.0,null,1.0,"DAYS",5015.0],["CDISCPILOT01","701","701","01-701-1015","2014-01-02","2014-07-02","Placebo",0,63.0,"<65",1,"WHITE",1,"F","Y","Y","Y","Week 16",16.0,"WEEK 16"," 10",126.0,"2014-05-07","Adas-Cog(11) Subscore","ACTOT",15.0," 11.00000000000000"," 13.00000000000000","  -2.0000000000000000","  -15.3846153846153850","","Y","","85-140",112.0,14.0,85.0,140.0,"DAYS",5045.0],["CDISCPILOT01","701","701","01-701-1015","2014-01-02","2014-07-02","Placebo",0,63.0,"<65",1,"WHITE",1,"F","Y","Y","Y","Week 24",24.0,"WEEK 24"," 12",168.0,"2014-06-18","Adas-Cog(11) Subscore","ACTOT",15.0,"  8.00000000000000"," 13.00000000000000","  -5.0000000000000000","  -38.4615384615384670","","Y","",">140",168.0,0.0,141.0,null,"DAYS",5060.0],["CDISCPILOT01","701","701","01-701-1015","2014-01-02","2014-07-02","Placebo",0,63.0,"<65",1,"WHITE",1,"F","Y","Y","Y","Week 8",8.0,"WEEK 8","  8",63.0,"2014-03-05","Adas-Cog(11) Subscore","ACTOT",15.0,"  8.00000000000000"," 13.00000000000000","  -5.0000000000000000","  -38.4615384615384670","","Y","","2-84",56.0,7.0,2.0,84.0,"DAYS",5030.0],["CDISCPILOT01","701","701","01-701-1023","2012-08-05","2012-09-01","Placebo",0,64.0,"<65",1,"WHITE",1,"M","Y","Y","N","Baseline",0.0,"BASELINE","  3",1.0,"2012-08-05","Word Recall Task","ACITM01",1.0,"  4.00000000000000","  4.00000000000000","                   NA","                    NA","Y","Y","","<=1",1.0,0.0,null,1.0,"DAYS",5001.0],["CDISCPILOT01","701","701","01-701-1023","2012-08-05","2012-09-01","Placebo",0,64.0,"<65",1,"WHITE",1,"M","Y","Y","N","Week 24",24.0,"RETRIEVAL","201",198.0,"2013-02-18","Word Recall Task","ACITM01",1.0,"  3.00000000000000","  4.00000000000000","  -1.0000000000000000","  -25.0000000000000000","","Y","",">140",168.0,30.0,141.0,null,"DAYS",5031.0],["CDISCPILOT01","701","701","01-701-1023","2012-08-05","2012-09-01","Placebo",0,64.0,"<65",1,"WHITE",1,"M","Y","Y","N","Week 8",8.0,"WEEK 4","  5",29.0,"2012-09-02","Word Recall Task","ACITM01",1.0,"  2.00000000000000","  4.00000000000000","  -2.0000000000000000","  -50.0000000000000000","","Y","","2-84",56.0,27.0,2.0,84.0,"DAYS",5016.0],["CDISCPILOT01","701","701","01-701-1023","2012-08-05","2012-09-01","Placebo",0,64.0,"<65",1,"WHITE",1,"M","Y","Y","N","Baseline",0.0,"BASELINE","  3",1.0,"2012-08-05","Naming Objects And Fingers (Refer To 5 C","ACITM02",2.0,"  2.00000000000000","  2.00000000000000","                   NA","                    NA","Y","Y","","<=1",1.0,0.0,null,1.0,"DAYS",5002.0],["CDISCPILOT01","701","701","01-701-1023","2012-08-05","2012-09-01","Placebo",0,64.0,"<65",1,"WHITE",1,"M","Y","Y","N","Week 24",24.0,"RETRIEVAL","201",198.0,"2013-02-18","Naming Objects And Fingers (Refer To 5 C","ACITM02",2.0,"  0.00000000000000","  2.00000000000000","  -2.0000000000000000"," -100.0000000000000000","","Y","",">140",168.0,30.0,141.0,null,"DAYS",5032.0],["CDISCPILOT01","701","701","01-701-1023","2012-08-05","2012-09-01","Placebo",0,64.0,"<65",1,"WHITE",1,"M","Y","Y","N","Week 8",8.0,"WEEK 4","  5",29.0,"2012-09-02","Naming Objects And Fingers (Refer To 5 C","ACITM02",2.0,"  2.00000000000000","  2.00000000000000","   0.0000000000000000","    0.0000000000000000","","Y","","2-84",56.0,27.0,2.0,84.0,"DAYS",5017.0],["CDISCPILOT01","701","701","01-701-1023","2012-08-05","2012-09-01","Placebo",0,64.0,"<65",1,"WHITE",1,"M","Y","Y","N","Baseline",0.0,"BASELINE","  3",1.0,"2012-08-05","Delayed Word Recall","ACITM03",3.0,"  2.00000000000000","  2.00000000000000","                   NA","                    NA","Y","Y","","<=1",1.0,0.0,null,1.0,"DAYS",5003.0],["CDISCPILOT01","701","701","01-701-1023","2012-08-05","2012-09-01","Placebo",0,64.0,"<65",1,"WHITE",1,"M","Y","Y","N","Week 24",24.0,"RETRIEVAL","201",198.0,"2013-02-18","Delayed Word Recall","ACITM03",3.0,"  3.00000000000000","  2.00000000000000","   1.0000000000000000","   50.0000000000000000","","Y","",">140",168.0,30.0,141.0,null,"DAYS",5033.0],["CDISCPILOT01","701","701","01-701-1023","2012-08-05","2012-09-01","Placebo",0,64.0,"<65",1,"WHITE",1,"M","Y","Y","N","Week 8",8.0,"WEEK 4","  5",29.0,"2012-09-02","Delayed Word Recall","ACITM03",3.0,"  2.00000000000000","  2.00000000000000","   0.0000000000000000","    0.0000000000000000","","Y","","2-84",56.0,27.0,2.0,84.0,"DAYS",5018.0],["CDISCPILOT01","701","701","01-701-1023","2012-08-05","2012-09-01","Placebo",0,64.0,"<65",1,"WHITE",1,"M","Y","Y","N","Baseline",0.0,"BASELINE","  3",1.0,"2012-08-05","Commands","ACITM04",4.0,"  0.00000000000000","  0.00000000000000","                   NA","                    NA","Y","Y","","<=1",1.0,0.0,null,1.0,"DAYS",5004.0],["CDISCPILOT01","701","701","01-701-1023","2012-08-05","2012-09-01","Placebo",0,64.0,"<65",1,"WHITE",1,"M","Y","Y","N","Week 24",24.0,"RETRIEVAL","201",198.0,"2013-02-18","Commands","ACITM04",4.0,"  0.00000000000000","  0.00000000000000","   0.0000000000000000","                    NA","","Y","",">140",168.0,30.0,141.0,null,"DAYS",5034.0],["CDISCPILOT01","701","701","01-701-1023","2012-08-05","2012-09-01","Placebo",0,64.0,"<65",1,"WHITE",1,"M","Y","Y","N","Week 8",8.0,"WEEK 4","  5",29.0,"2012-09-02","Commands","ACITM04",4.0,"  0.00000000000000","  0.00000000000000","   0.0000000000000000","                    NA","","Y","","2-84",56.0,27.0,2.0,84.0,"DAYS",5019.0],["CDISCPILOT01","701","701","01-701-1023","2012-08-05","2012-09-01","Placebo",0,64.0,"<65",1,"WHITE",1,"M","Y","Y","N","Baseline",0.0,"BASELINE","  3",1.0,"2012-08-05","Constructional Praxis","ACITM05",5.0,"  3.00000000000000","  3.00000000000000","                   NA","                    NA","Y","Y","","<=1",1.0,0.0,null,1.0,"DAYS",5005.0],["CDISCPILOT01","701","701","01-701-1023","2012-08-05","2012-09-01","Placebo",0,64.0,"<65",1,"WHITE",1,"M","Y","Y","N","Week 24",24.0,"RETRIEVAL","201",198.0,"2013-02-18","Constructional Praxis","ACITM05",5.0,"  4.00000000000000","  3.00000000000000","   1.0000000000000000","   33.3333333333333286","","Y","",">140",168.0,30.0,141.0,null,"DAYS",5035.0],["CDISCPILOT01","701","701","01-701-1023","2012-08-05","2012-09-01","Placebo",0,64.0,"<65",1,"WHITE",1,"M","Y","Y","N","Week 8",8.0,"WEEK 4","  5",29.0,"2012-09-02","Constructional Praxis","ACITM05",5.0,"  2.00000000000000","  3.00000000000000","  -1.0000000000000000","  -33.3333333333333286","","Y","","2-84",56.0,27.0,2.0,84.0,"DAYS",5020.0],["CDISCPILOT01","701","701","01-701-1023","2012-08-05","2012-09-01","Placebo",0,64.0,"<65",1,"WHITE",1,"M","Y","Y","N","Baseline",0.0,"BASELINE","  3",1.0,"2012-08-05","Ideational Praxis","ACITM06",6.0,"  0.00000000000000","  0.00000000000000","                   NA","                    NA","Y","Y","","<=1",1.0,0.0,null,1.0,"DAYS",5006.0],["CDISCPILOT01","701","701","01-701-1023","2012-08-05","2012-09-01","Placebo",0,64.0,"<65",1,"WHITE",1,"M","Y","Y","N","Week 24",24.0,"RETRIEVAL","201",198.0,"2013-02-18","Ideational Praxis","ACITM06",6.0,"  0.00000000000000","  0.00000000000000","   0.0000000000000000","                    NA","","Y","",">140",168.0,30.0,141.0,null,"DAYS",5036.0],["CDISCPILOT01","701","701","01-701-1023","2012-08-05","2012-09-01","Placebo",0,64.0,"<65",1,"WHITE",1,"M","Y","Y","N","Week 8",8.0,"WEEK 4","  5",29.0,"2012-09-02","Ideational Praxis","ACITM06",6.0,"  0.00000000000000","  0.00000000000000","   0.0000000000000000","                    NA","","Y","","2-84",56.0,27.0,2.0,84.0,"DAYS",5021.0],["CDISCPILOT01","701","701","01-701-1023","2012-08-05","2012-09-01","Placebo",0,64.0,"<65",1,"WHITE",1,"M","Y","Y","N","Baseline",0.0,"BASELINE","  3",1.0,"2012-08-05","Orientation","ACITM07",7.0,"  2.00000000000000","  2.00000000000000","                   NA","                    NA","Y","Y","","<=1",1.0,0.0,null,1.0,"DAYS",5007.0],["CDISCPILOT01","701","701","01-701-1023","2012-08-05","2012-09-01","Placebo",0,64.0,"<65",1,"WHITE",1,"M","Y","Y","N","Week 24",24.0,"RETRIEVAL","201",198.0,"2013-02-18","Orientation","ACITM07",7.0,"  0.00000000000000","  2.00000000000000","  -2.0000000000000000"," -100.0000000000000000","","Y","",">140",168.0,30.0,141.0,null,"DAYS",5037.0],["CDISCPILOT01","701","701","01-701-1023","2012-08-05","2012-09-01","Placebo",0,64.0,"<65",1,"WHITE",1,"M","Y","Y","N","Week 8",8.0,"WEEK 4","  5",29.0,"2012-09-02","Orientation","ACITM07",7.0,"  1.00000000000000","  2.00000000000000","  -1.0000000000000000","  -50.0000000000000000","","Y","","2-84",56.0,27.0,2.0,84.0,"DAYS",5022.0],["CDISCPILOT01","701","701","01-701-1023","2012-08-05","2012-09-01","Placebo",0,64.0,"<65",1,"WHITE",1,"M","Y","Y","N","Baseline",0.0,"BASELINE","  3",1.0,"2012-08-05","Word Recognition","ACITM08",8.0,"  2.00000000000000","  2.00000000000000","                   NA","                    NA","Y","Y","","<=1",1.0,0.0,null,1.0,"DAYS",5008.0],["CDISCPILOT01","701","701","01-701-1023","2012-08-05","2012-09-01","Placebo",0,64.0,"<65",1,"WHITE",1,"M","Y","Y","N","Week 24",24.0,"RETRIEVAL","201",198.0,"2013-02-18","Word Recognition","ACITM08",8.0,"  1.00000000000000","  2.00000000000000","  -1.0000000000000000","  -50.0000000000000000","","Y","",">140",168.0,30.0,141.0,null,"DAYS",5038.0],["CDISCPILOT01","701","701","01-701-1023","2012-08-05","2012-09-01","Placebo",0,64.0,"<65",1,"WHITE",1,"M","Y","Y","N","Week 8",8.0,"WEEK 4","  5",29.0,"2012-09-02","Word Recognition","ACITM08",8.0,"  1.00000000000000","  2.00000000000000","  -1.0000000000000000","  -50.0000000000000000","","Y","","2-84",56.0,27.0,2.0,84.0,"DAYS",5023.0],["CDISCPILOT01","701","701","01-701-1023","2012-08-05","2012-09-01","Placebo",0,64.0,"<65",1,"WHITE",1,"M","Y","Y","N","Baseline",0.0,"BASELINE","  3",1.0,"2012-08-05","Attention/Visual Search Task","ACITM09",9.0," 39.00000000000000"," 39.00000000000000","                   NA","                    NA","Y","Y","","<=1",1.0,0.0,null,1.0,"DAYS",5009.0],["CDISCPILOT01","701","701","01-701-1023","2012-08-05","2012-09-01","Placebo",0,64.0,"<65",1,"WHITE",1,"M","Y","Y","N","Week 24",24.0,"RETRIEVAL","201",198.0,"2013-02-18","Attention/Visual Search Task","ACITM09",9.0," 37.00000000000000"," 39.00000000000000","  -2.0000000000000000","   -5.1282051282051277","","Y","",">140",168.0,30.0,141.0,null,"DAYS",5039.0],["CDISCPILOT01","701","701","01-701-1023","2012-08-05","2012-09-01","Placebo",0,64.0,"<65",1,"WHITE",1,"M","Y","Y","N","Week 8",8.0,"WEEK 4","  5",29.0,"2012-09-02","Attention/Visual Search Task","ACITM09",9.0," 40.00000000000000"," 39.00000000000000","   1.0000000000000000","    2.5641025641025639","","Y","","2-84",56.0,27.0,2.0,84.0,"DAYS",5024.0],["CDISCPILOT01","701","701","01-701-1023","2012-08-05","2012-09-01","Placebo",0,64.0,"<65",1,"WHITE",1,"M","Y","Y","N","Baseline",0.0,"BASELINE","  3",1.0,"2012-08-05","Maze Solution","ACITM10",10.0,"  5.00000000000000","  5.00000000000000","                   NA","                    NA","Y","Y","","<=1",1.0,0.0,null,1.0,"DAYS",5010.0],["CDISCPILOT01","701","701","01-701-1023","2012-08-05","2012-09-01","Placebo",0,64.0,"<65",1,"WHITE",1,"M","Y","Y","N","Week 24",24.0,"RETRIEVAL","201",198.0,"2013-02-18","Maze Solution","ACITM10",10.0,"  3.00000000000000","  5.00000000000000","  -2.0000000000000000","  -40.0000000000000000","","Y","",">140",168.0,30.0,141.0,null,"DAYS",5040.0],["CDISCPILOT01","701","701","01-701-1023","2012-08-05","2012-09-01","Placebo",0,64.0,"<65",1,"WHITE",1,"M","Y","Y","N","Week 8",8.0,"WEEK 4","  5",29.0,"2012-09-02","Maze Solution","ACITM10",10.0,"  5.00000000000000","  5.00000000000000","   0.0000000000000000","    0.0000000000000000","","Y","","2-84",56.0,27.0,2.0,84.0,"DAYS",5025.0],["CDISCPILOT01","701","701","01-701-1023","2012-08-05","2012-09-01","Placebo",0,64.0,"<65",1,"WHITE",1,"M","Y","Y","N","Baseline",0.0,"BASELINE","  3",1.0,"2012-08-05","Spoken Language Ability","ACITM11",11.0,"  0.00000000000000","  0.00000000000000","                   NA","                    NA","Y","Y","","<=1",1.0,0.0,null,1.0,"DAYS",5011.0],["CDISCPILOT01","701","701","01-701-1023","2012-08-05","2012-09-01","Placebo",0,64.0,"<65",1,"WHITE",1,"M","Y","Y","N","Week 24",24.0,"RETRIEVAL","201",198.0,"2013-02-18","Spoken Language Ability","ACITM11",11.0,"  1.00000000000000","  0.00000000000000","   1.0000000000000000","                    NA","","Y","",">140",168.0,30.0,141.0,null,"DAYS",5041.0],["CDISCPILOT01","701","701","01-701-1023","2012-08-05","2012-09-01","Placebo",0,64.0,"<65",1,"WHITE",1,"M","Y","Y","N","Week 8",8.0,"WEEK 4","  5",29.0,"2012-09-02","Spoken Language Ability","ACITM11",11.0,"  0.00000000000000","  0.00000000000000","   0.0000000000000000","                    NA","","Y","","2-84",56.0,27.0,2.0,84.0,"DAYS",5026.0],["CDISCPILOT01","701","701","01-701-1023","2012-08-05","2012-09-01","Placebo",0,64.0,"<65",1,"WHITE",1,"M","Y","Y","N","Baseline",0.0,"BASELINE","  3",1.0,"2012-08-05","Comprehension Of Spoken Language","ACITM12",12.0,"  0.00000000000000","  0.00000000000000","                   NA","                    NA","Y","Y","","<=1",1.0,0.0,null,1.0,"DAYS",5012.0],["CDISCPILOT01","701","701","01-701-1023","2012-08-05","2012-09-01","Placebo",0,64.0,"<65",1,"WHITE",1,"M","Y","Y","N","Week 24",24.0,"RETRIEVAL","201",198.0,"2013-02-18","Comprehension Of Spoken Language","ACITM12",12.0,"  1.00000000000000","  0.00000000000000","   1.0000000000000000","                    NA","","Y","",">140",168.0,30.0,141.0,null,"DAYS",5042.0],["CDISCPILOT01","701","701","01-701-1023","2012-08-05","2012-09-01","Placebo",0,64.0,"<65",1,"WHITE",1,"M","Y","Y","N","Week 8",8.0,"WEEK 4","  5",29.0,"2012-09-02","Comprehension Of Spoken Language","ACITM12",12.0,"  0.00000000000000","  0.00000000000000","   0.0000000000000000","                    NA","","Y","","2-84",56.0,27.0,2.0,84.0,"DAYS",5027.0],["CDISCPILOT01","701","701","01-701-1023","2012-08-05","2012-09-01","Placebo",0,64.0,"<65",1,"WHITE",1,"M","Y","Y","N","Baseline",0.0,"BASELINE","  3",1.0,"2012-08-05","Word Finding Difficulty In Spontaneous S","ACITM13",13.0,"  0.00000000000000","  0.00000000000000","                   NA","                    NA","Y","Y","","<=1",1.0,0.0,null,1.0,"DAYS",5013.0],["CDISCPILOT01","701","701","01-701-1023","2012-08-05","2012-09-01","Placebo",0,64.0,"<65",1,"WHITE",1,"M","Y","Y","N","Week 24",24.0,"RETRIEVAL","201",198.0,"2013-02-18","Word Finding Difficulty In Spontaneous S","ACITM13",13.0,"  1.00000000000000","  0.00000000000000","   1.0000000000000000","                    NA","","Y","",">140",168.0,30.0,141.0,null,"DAYS",5043.0],["CDISCPILOT01","701","701","01-701-1023","2012-08-05","2012-09-01","Placebo",0,64.0,"<65",1,"WHITE",1,"M","Y","Y","N","Week 8",8.0,"WEEK 4","  5",29.0,"2012-09-02","Word Finding Difficulty In Spontaneous S","ACITM13",13.0,"  0.00000000000000","  0.00000000000000","   0.0000000000000000","                    NA","","Y","","2-84",56.0,27.0,2.0,84.0,"DAYS",5028.0],["CDISCPILOT01","701","701","01-701-1023","2012-08-05","2012-09-01","Placebo",0,64.0,"<65",1,"WHITE",1,"M","Y","Y","N","Baseline",0.0,"BASELINE","  3",1.0,"2012-08-05","Recall Of Test Instructions","ACITM14",14.0,"  0.00000000000000","  0.00000000000000","                   NA","                    NA","Y","Y","","<=1",1.0,0.0,null,1.0,"DAYS",5014.0],["CDISCPILOT01","701","701","01-701-1023","2012-08-05","2012-09-01","Placebo",0,64.0,"<65",1,"WHITE",1,"M","Y","Y","N","Week 24",24.0,"RETRIEVAL","201",198.0,"2013-02-18","Recall Of Test Instructions","ACITM14",14.0,"  1.00000000000000","  0.00000000000000","   1.0000000000000000","                    NA","","Y","",">140",168.0,30.0,141.0,null,"DAYS",5044.0],["CDISCPILOT01","701","701","01-701-1023","2012-08-05","2012-09-01","Placebo",0,64.0,"<65",1,"WHITE",1,"M","Y","Y","N","Week 8",8.0,"WEEK 4","  5",29.0,"2012-09-02","Recall Of Test Instructions","ACITM14",14.0,"  0.00000000000000","  0.00000000000000","   0.0000000000000000","                    NA","","Y","","2-84",56.0,27.0,2.0,84.0,"DAYS",5029.0],["CDISCPILOT01","701","701","01-701-1023","2012-08-05","2012-09-01","Placebo",0,64.0,"<65",1,"WHITE",1,"M","Y","Y","N","Baseline",0.0,"BASELINE","  3",1.0,"2012-08-05","Adas-Cog(11) Subscore","ACTOT",15.0," 13.00000000000000"," 13.00000000000000","                   NA","                    NA","Y","Y","","<=1",1.0,0.0,null,1.0,"DAYS",5015.0],["CDISCPILOT01","701","701","01-701-1023","2012-08-05","2012-09-01","Placebo",0,64.0,"<65",1,"WHITE",1,"M","Y","Y","N","Week 16",16.0,"WEEK 4","  5",29.0,"2012-09-02","Adas-Cog(11) Subscore","ACTOT",15.0,"  8.00000000000000"," 13.00000000000000","  -5.0000000000000000","  -38.4615384615384670","","Y","LOCF","85-140",112.0,83.0,85.0,140.0,"DAYS",5030.0],["CDISCPILOT01","701","701","01-701-1023","2012-08-05","2012-09-01","Placebo",0,64.0,"<65",1,"WHITE",1,"M","Y","Y","N","Week 24",24.0,"RETRIEVAL","201",198.0,"2013-02-18","Adas-Cog(11) Subscore","ACTOT",15.0," 12.00000000000000"," 13.00000000000000","  -1.0000000000000000","   -7.6923076923076925","","Y","",">140",168.0,30.0,141.0,null,"DAYS",5045.0],["CDISCPILOT01","701","701","01-701-1023","2012-08-05","2012-09-01","Placebo",0,64.0,"<65",1,"WHITE",1,"M","Y","Y","N","Week 8",8.0,"WEEK 4","  5",29.0,"2012-09-02","Adas-Cog(11) Subscore","ACTOT",15.0,"  8.00000000000000"," 13.00000000000000","  -5.0000000000000000","  -38.4615384615384670","","Y","","2-84",56.0,27.0,2.0,84.0,"DAYS",5030.0],["CDISCPILOT01","701","701","01-701-1028","2013-07-19","2014-01-14","Xanomeline High Dose",81,71.0,"65-80",2,"WHITE",1,"M","Y","Y","Y","Baseline",0.0,"BASELINE","  3",1.0,"2013-07-19","Word Recall Task","ACITM01",1.0,"  1.00000000000000","  1.00000000000000","                   NA","                    NA","Y","Y","","<=1",1.0,0.0,null,1.0,"DAYS",5001.0],["CDISCPILOT01","701","701","01-701-1028","2013-07-19","2014-01-14","Xanomeline High Dose",81,71.0,"65-80",2,"WHITE",1,"M","Y","Y","Y","Week 16",16.0,"WEEK 16"," 10",111.0,"2013-11-06","Word Recall Task","ACITM01",1.0,"  3.00000000000000","  1.00000000000000","   2.0000000000000000","  200.0000000000000000","","Y","","85-140",112.0,1.0,85.0,140.0,"DAYS",5031.0],["CDISCPILOT01","701","701","01-701-1028","2013-07-19","2014-01-14","Xanomeline High Dose",81,71.0,"65-80",2,"WHITE",1,"M","Y","Y","Y","Week 24",24.0,"WEEK 24"," 12",172.0,"2014-01-06","Word Recall Task","ACITM01",1.0,"  2.00000000000000","  1.00000000000000","   1.0000000000000000","  100.0000000000000000","","Y","",">140",168.0,4.0,141.0,null,"DAYS",5046.0],["CDISCPILOT01","701","701","01-701-1028","2013-07-19","2014-01-14","Xanomeline High Dose",81,71.0,"65-80",2,"WHITE",1,"M","Y","Y","Y","Week 8",8.0,"WEEK 8","  8",54.0,"2013-09-10","Word Recall Task","ACITM01",1.0,"  1.00000000000000","  1.00000000000000","   0.0000000000000000","    0.0000000000000000","","Y","","2-84",56.0,2.0,2.0,84.0,"DAYS",5016.0],["CDISCPILOT01","701","701","01-701-1028","2013-07-19","2014-01-14","Xanomeline High Dose",81,71.0,"65-80",2,"WHITE",1,"M","Y","Y","Y","Baseline",0.0,"BASELINE","  3",1.0,"2013-07-19","Naming Objects And Fingers (Refer To 5 C","ACITM02",2.0,"  0.00000000000000","  0.00000000000000","                   NA","                    NA","Y","Y","","<=1",1.0,0.0,null,1.0,"DAYS",5002.0],["CDISCPILOT01","701","701","01-701-1028","2013-07-19","2014-01-14","Xanomeline High Dose",81,71.0,"65-80",2,"WHITE",1,"M","Y","Y","Y","Week 16",16.0,"WEEK 16"," 10",111.0,"2013-11-06","Naming Objects And Fingers (Refer To 5 C","ACITM02",2.0,"  0.00000000000000","  0.00000000000000","   0.0000000000000000","                    NA","","Y","","85-140",112.0,1.0,85.0,140.0,"DAYS",5032.0],["CDISCPILOT01","701","701","01-701-1028","2013-07-19","2014-01-14","Xanomeline High Dose",81,71.0,"65-80",2,"WHITE",1,"M","Y","Y","Y","Week 24",24.0,"WEEK 24"," 12",172.0,"2014-01-06","Naming Objects And Fingers (Refer To 5 C","ACITM02",2.0,"  0.00000000000000","  0.00000000000000","   0.0000000000000000","                    NA","","Y","",">140",168.0,4.0,141.0,null,"DAYS",5047.0],["CDISCPILOT01","701","701","01-701-1028","2013-07-19","2014-01-14","Xanomeline High Dose",81,71.0,"65-80",2,"WHITE",1,"M","Y","Y","Y","Week 8",8.0,"WEEK 8","  8",54.0,"2013-09-10","Naming Objects And Fingers (Refer To 5 C","ACITM02",2.0,"  0.00000000000000","  0.00000000000000","   0.0000000000000000","                    NA","","Y","","2-84",56.0,2.0,2.0,84.0,"DAYS",5017.0],["CDISCPILOT01","701","701","01-701-1028","2013-07-19","2014-01-14","Xanomeline High Dose",81,71.0,"65-80",2,"WHITE",1,"M","Y","Y","Y","Baseline",0.0,"BASELINE","  3",1.0,"2013-07-19","Delayed Word Recall","ACITM03",3.0,"  1.00000000000000","  1.00000000000000","                   NA","                    NA","Y","Y","","<=1",1.0,0.0,null,1.0,"DAYS",5003.0],["CDISCPILOT01","701","701","01-701-1028","2013-07-19","2014-01-14","Xanomeline High Dose",81,71.0,"65-80",2,"WHITE",1,"M","Y","Y","Y","Week 16",16.0,"WEEK 16"," 10",111.0,"2013-11-06","Delayed Word Recall","ACITM03",3.0,"  4.00000000000000","  1.00000000000000","   3.0000000000000000","  300.0000000000000000","","Y","","85-140",112.0,1.0,85.0,140.0,"DAYS",5033.0],["CDISCPILOT01","701","701","01-701-1028","2013-07-19","2014-01-14","Xanomeline High Dose",81,71.0,"65-80",2,"WHITE",1,"M","Y","Y","Y","Week 24",24.0,"WEEK 24"," 12",172.0,"2014-01-06","Delayed Word Recall","ACITM03",3.0,"  1.00000000000000","  1.00000000000000","   0.0000000000000000","    0.0000000000000000","","Y","",">140",168.0,4.0,141.0,null,"DAYS",5048.0],["CDISCPILOT01","701","701","01-701-1028","2013-07-19","2014-01-14","Xanomeline High Dose",81,71.0,"65-80",2,"WHITE",1,"M","Y","Y","Y","Week 8",8.0,"WEEK 8","  8",54.0,"2013-09-10","Delayed Word Recall","ACITM03",3.0,"  0.00000000000000","  1.00000000000000","  -1.0000000000000000"," -100.0000000000000000","","Y","","2-84",56.0,2.0,2.0,84.0,"DAYS",5018.0],["CDISCPILOT01","701","701","01-701-1028","2013-07-19","2014-01-14","Xanomeline High Dose",81,71.0,"65-80",2,"WHITE",1,"M","Y","Y","Y","Baseline",0.0,"BASELINE","  3",1.0,"2013-07-19","Commands","ACITM04",4.0,"  0.00000000000000","  0.00000000000000","                   NA","                    NA","Y","Y","","<=1",1.0,0.0,null,1.0,"DAYS",5004.0],["CDISCPILOT01","701","701","01-701-1028","2013-07-19","2014-01-14","Xanomeline High Dose",81,71.0,"65-80",2,"WHITE",1,"M","Y","Y","Y","Week 16",16.0,"WEEK 16"," 10",111.0,"2013-11-06","Commands","ACITM04",4.0,"  0.00000000000000","  0.00000000000000","   0.0000000000000000","                    NA","","Y","","85-140",112.0,1.0,85.0,140.0,"DAYS",5034.0],["CDISCPILOT01","701","701","01-701-1028","2013-07-19","2014-01-14","Xanomeline High Dose",81,71.0,"65-80",2,"WHITE",1,"M","Y","Y","Y","Week 24",24.0,"WEEK 24"," 12",172.0,"2014-01-06","Commands","ACITM04",4.0,"  0.00000000000000","  0.00000000000000","   0.0000000000000000","                    NA","","Y","",">140",168.0,4.0,141.0,null,"DAYS",5049.0],["CDISCPILOT01","701","701","01-701-1028","2013-07-19","2014-01-14","Xanomeline High Dose",81,71.0,"65-80",2,"WHITE",1,"M","Y","Y","Y","Week 8",8.0,"WEEK 8","  8",54.0,"2013-09-10","Commands","ACITM04",4.0,"  0.00000000000000","  0.00000000000000","   0.0000000000000000","                    NA","","Y","","2-84",56.0,2.0,2.0,84.0,"DAYS",5019.0],["CDISCPILOT01","701","701","01-701-1028","2013-07-19","2014-01-14","Xanomeline High Dose",81,71.0,"65-80",2,"WHITE",1,"M","Y","Y","Y","Baseline",0.0,"BASELINE","  3",1.0,"2013-07-19","Constructional Praxis","ACITM05",5.0,"  0.00000000000000","  0.00000000000000","                   NA","                    NA","Y","Y","","<=1",1.0,0.0,null,1.0,"DAYS",5005.0],["CDISCPILOT01","701","701","01-701-1028","2013-07-19","2014-01-14","Xanomeline High Dose",81,71.0,"65-80",2,"WHITE",1,"M","Y","Y","Y","Week 16",16.0,"WEEK 16"," 10",111.0,"2013-11-06","Constructional Praxis","ACITM05",5.0,"  0.00000000000000","  0.00000000000000","   0.0000000000000000","                    NA","","Y","","85-140",112.0,1.0,85.0,140.0,"DAYS",5035.0],["CDISCPILOT01","701","701","01-701-1028","2013-07-19","2014-01-14","Xanomeline High Dose",81,71.0,"65-80",2,"WHITE",1,"M","Y","Y","Y","Week 24",24.0,"WEEK 24"," 12",172.0,"2014-01-06","Constructional Praxis","ACITM05",5.0,"  0.00000000000000","  0.00000000000000","   0.0000000000000000","                    NA","","Y","",">140",168.0,4.0,141.0,null,"DAYS",5050.0],["CDISCPILOT01","701","701","01-701-1028","2013-07-19","2014-01-14","Xanomeline High Dose",81,71.0,"65-80",2,"WHITE",1,"M","Y","Y","Y","Week 8",8.0,"WEEK 8","  8",54.0,"2013-09-10","Constructional Praxis","ACITM05",5.0,"  0.00000000000000","  0.00000000000000","   0.0000000000000000","                    NA","","Y","","2-84",56.0,2.0,2.0,84.0,"DAYS",5020.0],["CDISCPILOT01","701","701","01-701-1028","2013-07-19","2014-01-14","Xanomeline High Dose",81,71.0,"65-80",2,"WHITE",1,"M","Y","Y","Y","Baseline",0.0,"BASELINE","  3",1.0,"2013-07-19","Ideational Praxis","ACITM06",6.0,"  0.00000000000000","  0.00000000000000","                   NA","                    NA","Y","Y","","<=1",1.0,0.0,null,1.0,"DAYS",5006.0],["CDISCPILOT01","701","701","01-701-1028","2013-07-19","2014-01-14","Xanomeline High Dose",81,71.0,"65-80",2,"WHITE",1,"M","Y","Y","Y","Week 16",16.0,"WEEK 16"," 10",111.0,"2013-11-06","Ideational Praxis","ACITM06",6.0,"  0.00000000000000","  0.00000000000000","   0.0000000000000000","                    NA","","Y","","85-140",112.0,1.0,85.0,140.0,"DAYS",5036.0],["CDISCPILOT01","701","701","01-701-1028","2013-07-19","2014-01-14","Xanomeline High Dose",81,71.0,"65-80",2,"WHITE",1,"M","Y","Y","Y","Week 24",24.0,"WEEK 24"," 12",172.0,"2014-01-06","Ideational Praxis","ACITM06",6.0,"  0.00000000000000","  0.00000000000000","   0.0000000000000000","                    NA","","Y","",">140",168.0,4.0,141.0,null,"DAYS",5051.0],["CDISCPILOT01","701","701","01-701-1028","2013-07-19","2014-01-14","Xanomeline High Dose",81,71.0,"65-80",2,"WHITE",1,"M","Y","Y","Y","Week 8",8.0,"WEEK 8","  8",54.0,"2013-09-10","Ideational Praxis","ACITM06",6.0,"  0.00000000000000","  0.00000000000000","   0.0000000000000000","                    NA","","Y","","2-84",56.0,2.0,2.0,84.0,"DAYS",5021.0],["CDISCPILOT01","701","701","01-701-1028","2013-07-19","2014-01-14","Xanomeline High Dose",81,71.0,"65-80",2,"WHITE",1,"M","Y","Y","Y","Baseline",0.0,"BASELINE","  3",1.0,"2013-07-19","Orientation","ACITM07",7.0,"  0.00000000000000","  0.00000000000000","                   NA","                    NA","Y","Y","","<=1",1.0,0.0,null,1.0,"DAYS",5007.0],["CDISCPILOT01","701","701","01-701-1028","2013-07-19","2014-01-14","Xanomeline High Dose",81,71.0,"65-80",2,"WHITE",1,"M","Y","Y","Y","Week 16",16.0,"WEEK 16"," 10",111.0,"2013-11-06","Orientation","ACITM07",7.0,"  0.00000000000000","  0.00000000000000","   0.0000000000000000","                    NA","","Y","","85-140",112.0,1.0,85.0,140.0,"DAYS",5037.0],["CDISCPILOT01","701","701","01-701-1028","2013-07-19","2014-01-14","Xanomeline High Dose",81,71.0,"65-80",2,"WHITE",1,"M","Y","Y","Y","Week 24",24.0,"WEEK 24"," 12",172.0,"2014-01-06","Orientation","ACITM07",7.0,"  0.00000000000000","  0.00000000000000","   0.0000000000000000","                    NA","","Y","",">140",168.0,4.0,141.0,null,"DAYS",5052.0],["CDISCPILOT01","701","701","01-701-1028","2013-07-19","2014-01-14","Xanomeline High Dose",81,71.0,"65-80",2,"WHITE",1,"M","Y","Y","Y","Week 8",8.0,"WEEK 8","  8",54.0,"2013-09-10","Orientation","ACITM07",7.0,"  0.00000000000000","  0.00000000000000","   0.0000000000000000","                    NA","","Y","","2-84",56.0,2.0,2.0,84.0,"DAYS",5022.0],["CDISCPILOT01","701","701","01-701-1028","2013-07-19","2014-01-14","Xanomeline High Dose",81,71.0,"65-80",2,"WHITE",1,"M","Y","Y","Y","Baseline",0.0,"BASELINE","  3",1.0,"2013-07-19","Word Recognition","ACITM08",8.0,"  2.00000000000000","  2.00000000000000","                   NA","                    NA","Y","Y","","<=1",1.0,0.0,null,1.0,"DAYS",5008.0],["CDISCPILOT01","701","701","01-701-1028","2013-07-19","2014-01-14","Xanomeline High Dose",81,71.0,"65-80",2,"WHITE",1,"M","Y","Y","Y","Week 16",16.0,"WEEK 16"," 10",111.0,"2013-11-06","Word Recognition","ACITM08",8.0,"  1.00000000000000","  2.00000000000000","  -1.0000000000000000","  -50.0000000000000000","","Y","","85-140",112.0,1.0,85.0,140.0,"DAYS",5038.0],["CDISCPILOT01","701","701","01-701-1028","2013-07-19","2014-01-14","Xanomeline High Dose",81,71.0,"65-80",2,"WHITE",1,"M","Y","Y","Y","Week 24",24.0,"WEEK 24"," 12",172.0,"2014-01-06","Word Recognition","ACITM08",8.0,"  1.00000000000000","  2.00000000000000","  -1.0000000000000000","  -50.0000000000000000","","Y","",">140",168.0,4.0,141.0,null,"DAYS",5053.0],["CDISCPILOT01","701","701","01-701-1028","2013-07-19","2014-01-14","Xanomeline High Dose",81,71.0,"65-80",2,"WHITE",1,"M","Y","Y","Y","Week 8",8.0,"WEEK 8","  8",54.0,"2013-09-10","Word Recognition","ACITM08",8.0,"  1.00000000000000","  2.00000000000000","  -1.0000000000000000","  -50.0000000000000000","","Y","","2-84",56.0,2.0,2.0,84.0,"DAYS",5023.0],["CDISCPILOT01","701","701","01-701-1028","2013-07-19","2014-01-14","Xanomeline High Dose",81,71.0,"65-80",2,"WHITE",1,"M","Y","Y","Y","Baseline",0.0,"BASELINE","  3",1.0,"2013-07-19","Attention/Visual Search Task","ACITM09",9.0," 24.00000000000000"," 24.00000000000000","                   NA","                    NA","Y","Y","","<=1",1.0,0.0,null,1.0,"DAYS",5009.0],["CDISCPILOT01","701","701","01-701-1028","2013-07-19","2014-01-14","Xanomeline High Dose",81,71.0,"65-80",2,"WHITE",1,"M","Y","Y","Y","Week 16",16.0,"WEEK 16"," 10",111.0,"2013-11-06","Attention/Visual Search Task","ACITM09",9.0," 34.00000000000000"," 24.00000000000000","  10.0000000000000000","   41.6666666666666714","","Y","","85-140",112.0,1.0,85.0,140.0,"DAYS",5039.0],["CDISCPILOT01","701","701","01-701-1028","2013-07-19","2014-01-14","Xanomeline High Dose",81,71.0,"65-80",2,"WHITE",1,"M","Y","Y","Y","Week 24",24.0,"WEEK 24"," 12",172.0,"2014-01-06","Attention/Visual Search Task","ACITM09",9.0," 26.00000000000000"," 24.00000000000000","   2.0000000000000000","    8.3333333333333321","","Y","",">140",168.0,4.0,141.0,null,"DAYS",5054.0],["CDISCPILOT01","701","701","01-701-1028","2013-07-19","2014-01-14","Xanomeline High Dose",81,71.0,"65-80",2,"WHITE",1,"M","Y","Y","Y","Week 8",8.0,"WEEK 8","  8",54.0,"2013-09-10","Attention/Visual Search Task","ACITM09",9.0," 25.00000000000000"," 24.00000000000000","   1.0000000000000000","    4.1666666666666661","","Y","","2-84",56.0,2.0,2.0,84.0,"DAYS",5024.0],["CDISCPILOT01","701","701","01-701-1028","2013-07-19","2014-01-14","Xanomeline High Dose",81,71.0,"65-80",2,"WHITE",1,"M","Y","Y","Y","Baseline",0.0,"BASELINE","  3",1.0,"2013-07-19","Maze Solution","ACITM10",10.0,"  4.00000000000000","  4.00000000000000","                   NA","                    NA","Y","Y","","<=1",1.0,0.0,null,1.0,"DAYS",5010.0],["CDISCPILOT01","701","701","01-701-1028","2013-07-19","2014-01-14","Xanomeline High Dose",81,71.0,"65-80",2,"WHITE",1,"M","Y","Y","Y","Week 16",16.0,"WEEK 16"," 10",111.0,"2013-11-06","Maze Solution","ACITM10",10.0,"  5.00000000000000","  4.00000000000000","   1.0000000000000000","   25.0000000000000000","","Y","","85-140",112.0,1.0,85.0,140.0,"DAYS",5040.0],["CDISCPILOT01","701","701","01-701-1028","2013-07-19","2014-01-14","Xanomeline High Dose",81,71.0,"65-80",2,"WHITE",1,"M","Y","Y","Y","Week 24",24.0,"WEEK 24"," 12",172.0,"2014-01-06","Maze Solution","ACITM10",10.0,"  5.00000000000000","  4.00000000000000","   1.0000000000000000","   25.0000000000000000","","Y","",">140",168.0,4.0,141.0,null,"DAYS",5055.0],["CDISCPILOT01","701","701","01-701-1028","2013-07-19","2014-01-14","Xanomeline High Dose",81,71.0,"65-80",2,"WHITE",1,"M","Y","Y","Y","Week 8",8.0,"WEEK 8","  8",54.0,"2013-09-10","Maze Solution","ACITM10",10.0,"  5.00000000000000","  4.00000000000000","   1.0000000000000000","   25.0000000000000000","","Y","","2-84",56.0,2.0,2.0,84.0,"DAYS",5025.0],["CDISCPILOT01","701","701","01-701-1028","2013-07-19","2014-01-14","Xanomeline High Dose",81,71.0,"65-80",2,"WHITE",1,"M","Y","Y","Y","Baseline",0.0,"BASELINE","  3",1.0,"2013-07-19","Spoken Language Ability","ACITM11",11.0,"  0.00000000000000","  0.00000000000000","                   NA","                    NA","Y","Y","","<=1",1.0,0.0,null,1.0,"DAYS",5011.0],["CDISCPILOT01","701","701","01-701-1028","2013-07-19","2014-01-14","Xanomeline High Dose",81,71.0,"65-80",2,"WHITE",1,"M","Y","Y","Y","Week 16",16.0,"WEEK 16"," 10",111.0,"2013-11-06","Spoken Language Ability","ACITM11",11.0,"  0.00000000000000","  0.00000000000000","   0.0000000000000000","                    NA","","Y","","85-140",112.0,1.0,85.0,140.0,"DAYS",5041.0],["CDISCPILOT01","701","701","01-701-1028","2013-07-19","2014-01-14","Xanomeline High Dose",81,71.0,"65-80",2,"WHITE",1,"M","Y","Y","Y","Week 24",24.0,"WEEK 24"," 12",172.0,"2014-01-06","Spoken Language Ability","ACITM11",11.0,"  0.00000000000000","  0.00000000000000","   0.0000000000000000","                    NA","","Y","",">140",168.0,4.0,141.0,null,"DAYS",5056.0],["CDISCPILOT01","701","701","01-701-1028","2013-07-19","2014-01-14","Xanomeline High Dose",81,71.0,"65-80",2,"WHITE",1,"M","Y","Y","Y","Week 8",8.0,"WEEK 8","  8",54.0,"2013-09-10","Spoken Language Ability","ACITM11",11.0,"  0.00000000000000","  0.00000000000000","   0.0000000000000000","                    NA","","Y","","2-84",56.0,2.0,2.0,84.0,"DAYS",5026.0],["CDISCPILOT01","701","701","01-701-1028","2013-07-19","2014-01-14","Xanomeline High Dose",81,71.0,"65-80",2,"WHITE",1,"M","Y","Y","Y","Baseline",0.0,"BASELINE","  3",1.0,"2013-07-19","Comprehension Of Spoken Language","ACITM12",12.0,"  0.00000000000000","  0.00000000000000","                   NA","                    NA","Y","Y","","<=1",1.0,0.0,null,1.0,"DAYS",5012.0],["CDISCPILOT01","701","701","01-701-1028","2013-07-19","2014-01-14","Xanomeline High Dose",81,71.0,"65-80",2,"WHITE",1,"M","Y","Y","Y","Week 16",16.0,"WEEK 16"," 10",111.0,"2013-11-06","Comprehension Of Spoken Language","ACITM12",12.0,"  0.00000000000000","  0.00000000000000","   0.0000000000000000","                    NA","","Y","","85-140",112.0,1.0,85.0,140.0,"DAYS",5042.0],["CDISCPILOT01","701","701","01-701-1028","2013-07-19","2014-01-14","Xanomeline High Dose",81,71.0,"65-80",2,"WHITE",1,"M","Y","Y","Y","Week 24",24.0,"WEEK 24"," 12",172.0,"2014-01-06","Comprehension Of Spoken Language","ACITM12",12.0,"  0.00000000000000","  0.00000000000000","   0.0000000000000000","                    NA","","Y","",">140",168.0,4.0,141.0,null,"DAYS",5057.0],["CDISCPILOT01","701","701","01-701-1028","2013-07-19","2014-01-14","Xanomeline High Dose",81,71.0,"65-80",2,"WHITE",1,"M","Y","Y","Y","Week 8",8.0,"WEEK 8","  8",54.0,"2013-09-10","Comprehension Of Spoken Language","ACITM12",12.0,"  0.00000000000000","  0.00000000000000","   0.0000000000000000","                    NA","","Y","","2-84",56.0,2.0,2.0,84.0,"DAYS",5027.0],["CDISCPILOT01","701","701","01-701-1028","2013-07-19","2014-01-14","Xanomeline High Dose",81,71.0,"65-80",2,"WHITE",1,"M","Y","Y","Y","Baseline",0.0,"BASELINE","  3",1.0,"2013-07-19","Word Finding Difficulty In Spontaneous S","ACITM13",13.0,"  0.00000000000000","  0.00000000000000","                   NA","                    NA","Y","Y","","<=1",1.0,0.0,null,1.0,"DAYS",5013.0],["CDISCPILOT01","701","701","01-701-1028","2013-07-19","2014-01-14","Xanomeline High Dose",81,71.0,"65-80",2,"WHITE",1,"M","Y","Y","Y","Week 16",16.0,"WEEK 16"," 10",111.0,"2013-11-06","Word Finding Difficulty In Spontaneous S","ACITM13",13.0,"  0.00000000000000","  0.00000000000000","   0.0000000000000000","                    NA","","Y","","85-140",112.0,1.0,85.0,140.0,"DAYS",5043.0],["CDISCPILOT01","701","701","01-701-1028","2013-07-19","2014-01-14","Xanomeline High Dose",81,71.0,"65-80",2,"WHITE",1,"M","Y","Y","Y","Week 24",24.0,"WEEK 24"," 12",172.0,"2014-01-06","Word Finding Difficulty In Spontaneous S","ACITM13",13.0,"  0.00000000000000","  0.00000000000000","   0.0000000000000000","                    NA","","Y","",">140",168.0,4.0,141.0,null,"DAYS",5058.0],["CDISCPILOT01","701","701","01-701-1028","2013-07-19","2014-01-14","Xanomeline High Dose",81,71.0,"65-80",2,"WHITE",1,"M","Y","Y","Y","Week 8",8.0,"WEEK 8","  8",54.0,"2013-09-10","Word Finding Difficulty In Spontaneous S","ACITM13",13.0,"  0.00000000000000","  0.00000000000000","   0.0000000000000000","                    NA","","Y","","2-84",56.0,2.0,2.0,84.0,"DAYS",5028.0],["CDISCPILOT01","701","701","01-701-1028","2013-07-19","2014-01-14","Xanomeline High Dose",81,71.0,"65-80",2,"WHITE",1,"M","Y","Y","Y","Baseline",0.0,"BASELINE","  3",1.0,"2013-07-19","Recall Of Test Instructions","ACITM14",14.0,"  0.00000000000000","  0.00000000000000","                   NA","                    NA","Y","Y","","<=1",1.0,0.0,null,1.0,"DAYS",5014.0],["CDISCPILOT01","701","701","01-701-1028","2013-07-19","2014-01-14","Xanomeline High Dose",81,71.0,"65-80",2,"WHITE",1,"M","Y","Y","Y","Week 16",16.0,"WEEK 16"," 10",111.0,"2013-11-06","Recall Of Test Instructions","ACITM14",14.0,"  0.00000000000000","  0.00000000000000","   0.0000000000000000","                    NA","","Y","","85-140",112.0,1.0,85.0,140.0,"DAYS",5044.0],["CDISCPILOT01","701","701","01-701-1028","2013-07-19","2014-01-14","Xanomeline High Dose",81,71.0,"65-80",2,"WHITE",1,"M","Y","Y","Y","Week 24",24.0,"WEEK 24"," 12",172.0,"2014-01-06","Recall Of Test Instructions","ACITM14",14.0,"  0.00000000000000","  0.00000000000000","   0.0000000000000000","                    NA","","Y","",">140",168.0,4.0,141.0,null,"DAYS",5059.0],["CDISCPILOT01","701","701","01-701-1028","2013-07-19","2014-01-14","Xanomeline High Dose",81,71.0,"65-80",2,"WHITE",1,"M","Y","Y","Y","Week 8",8.0,"WEEK 8","  8",54.0,"2013-09-10","Recall Of Test Instructions","ACITM14",14.0,"  0.00000000000000","  0.00000000000000","   0.0000000000000000","                    NA","","Y","","2-84",56.0,2.0,2.0,84.0,"DAYS",5029.0],["CDISCPILOT01","701","701","01-701-1028","2013-07-19","2014-01-14","Xanomeline High Dose",81,71.0,"65-80",2,"WHITE",1,"M","Y","Y","Y","Baseline",0.0,"BASELINE","  3",1.0,"2013-07-19","Adas-Cog(11) Subscore","ACTOT",15.0,"  3.00000000000000","  3.00000000000000","                   NA","                    NA","Y","Y","","<=1",1.0,0.0,null,1.0,"DAYS",5015.0],["CDISCPILOT01","701","701","01-701-1028","2013-07-19","2014-01-14","Xanomeline High Dose",81,71.0,"65-80",2,"WHITE",1,"M","Y","Y","Y","Week 16",16.0,"WEEK 16"," 10",111.0,"2013-11-06","Adas-Cog(11) Subscore","ACTOT",15.0,"  4.00000000000000","  3.00000000000000","   1.0000000000000000","   33.3333333333333286","","Y","","85-140",112.0,1.0,85.0,140.0,"DAYS",5045.0],["CDISCPILOT01","701","701","01-701-1028","2013-07-19","2014-01-14","Xanomeline High Dose",81,71.0,"65-80",2,"WHITE",1,"M","Y","Y","Y","Week 24",24.0,"WEEK 24"," 12",172.0,"2014-01-06","Adas-Cog(11) Subscore","ACTOT",15.0,"  3.00000000000000","  3.00000000000000","   0.0000000000000000","    0.0000000000000000","","Y","",">140",168.0,4.0,141.0,null,"DAYS",5060.0],["CDISCPILOT01","701","701","01-701-1028","2013-07-19","2014-01-14","Xanomeline High Dose",81,71.0,"65-80",2,"WHITE",1,"M","Y","Y","Y","Week 8",8.0,"WEEK 8","  8",54.0,"2013-09-10","Adas-Cog(11) Subscore","ACTOT",15.0,"  2.00000000000000","  3.00000000000000","  -1.0000000000000000","  -33.3333333333333286","","Y","","2-84",56.0,2.0,2.0,84.0,"DAYS",5030.0],["CDISCPILOT01","701","701","01-701-1033","2014-03-18","2014-03-31","Xanomeline Low Dose",54,74.0,"65-80",2,"WHITE",1,"M","Y","Y","N","Baseline",0.0,"BASELINE","  3",1.0,"2014-03-18","Word Recall Task","ACITM01",1.0,"  5.00000000000000","  5.00000000000000","                   NA","                    NA","Y","Y","","<=1",1.0,0.0,null,1.0,"DAYS",5001.0],["CDISCPILOT01","701","701","01-701-1033","2014-03-18","2014-03-31","Xanomeline Low Dose",54,74.0,"65-80",2,"WHITE",1,"M","Y","Y","N","Week 24",24.0,"RETRIEVAL","201",182.0,"2014-09-15","Word Recall Task","ACITM01",1.0,"  6.00000000000000","  5.00000000000000","   1.0000000000000000","   20.0000000000000000","","Y","",">140",168.0,14.0,141.0,null,"DAYS",5031.0],["CDISCPILOT01","701","701","01-701-1033","2014-03-18","2014-03-31","Xanomeline Low Dose",54,74.0,"65-80",2,"WHITE",1,"M","Y","Y","N","Week 8",8.0,"WEEK 4","  5",28.0,"2014-04-14","Word Recall Task","ACITM01",1.0,"  5.00000000000000","  5.00000000000000","   0.0000000000000000","    0.0000000000000000","","Y","","2-84",56.0,28.0,2.0,84.0,"DAYS",5016.0],["CDISCPILOT01","701","701","01-701-1033","2014-03-18","2014-03-31","Xanomeline Low Dose",54,74.0,"65-80",2,"WHITE",1,"M","Y","Y","N","Baseline",0.0,"BASELINE","  3",1.0,"2014-03-18","Naming Objects And Fingers (Refer To 5 C","ACITM02",2.0,"  0.00000000000000","  0.00000000000000","                   NA","                    NA","Y","Y","","<=1",1.0,0.0,null,1.0,"DAYS",5002.0],["CDISCPILOT01","701","701","01-701-1033","2014-03-18","2014-03-31","Xanomeline Low Dose",54,74.0,"65-80",2,"WHITE",1,"M","Y","Y","N","Week 24",24.0,"RETRIEVAL","201",182.0,"2014-09-15","Naming Objects And Fingers (Refer To 5 C","ACITM02",2.0,"  0.00000000000000","  0.00000000000000","   0.0000000000000000","                    NA","","Y","",">140",168.0,14.0,141.0,null,"DAYS",5032.0],["CDISCPILOT01","701","701","01-701-1033","2014-03-18","2014-03-31","Xanomeline Low Dose",54,74.0,"65-80",2,"WHITE",1,"M","Y","Y","N","Week 8",8.0,"WEEK 4","  5",28.0,"2014-04-14","Naming Objects And Fingers (Refer To 5 C","ACITM02",2.0,"  0.00000000000000","  0.00000000000000","   0.0000000000000000","                    NA","","Y","","2-84",56.0,28.0,2.0,84.0,"DAYS",5017.0],["CDISCPILOT01","701","701","01-701-1033","2014-03-18","2014-03-31","Xanomeline Low Dose",54,74.0,"65-80",2,"WHITE",1,"M","Y","Y","N","Baseline",0.0,"BASELINE","  3",1.0,"2014-03-18","Delayed Word Recall","ACITM03",3.0,"  6.00000000000000","  6.00000000000000","                   NA","                    NA","Y","Y","","<=1",1.0,0.0,null,1.0,"DAYS",5003.0],["CDISCPILOT01","701","701","01-701-1033","2014-03-18","2014-03-31","Xanomeline Low Dose",54,74.0,"65-80",2,"WHITE",1,"M","Y","Y","N","Week 24",24.0,"RETRIEVAL","201",182.0,"2014-09-15","Delayed Word Recall","ACITM03",3.0,"  6.00000000000000","  6.00000000000000","   0.0000000000000000","    0.0000000000000000","","Y","",">140",168.0,14.0,141.0,null,"DAYS",5033.0],["CDISCPILOT01","701","701","01-701-1033","2014-03-18","2014-03-31","Xanomeline Low Dose",54,74.0,"65-80",2,"WHITE",1,"M","Y","Y","N","Week 8",8.0,"WEEK 4","  5",28.0,"2014-04-14","Delayed Word Recall","ACITM03",3.0,"  3.00000000000000","  6.00000000000000","  -3.0000000000000000","  -50.0000000000000000","","Y","","2-84",56.0,28.0,2.0,84.0,"DAYS",5018.0],["CDISCPILOT01","701","701","01-701-1033","2014-03-18","2014-03-31","Xanomeline Low Dose",54,74.0,"65-80",2,"WHITE",1,"M","Y","Y","N","Baseline",0.0,"BASELINE","  3",1.0,"2014-03-18","Commands","ACITM04",4.0,"  0.00000000000000","  0.00000000000000","                   NA","                    NA","Y","Y","","<=1",1.0,0.0,null,1.0,"DAYS",5004.0],["CDISCPILOT01","701","701","01-701-1033","2014-03-18","2014-03-31","Xanomeline Low Dose",54,74.0,"65-80",2,"WHITE",1,"M","Y","Y","N","Week 24",24.0,"RETRIEVAL","201",182.0,"2014-09-15","Commands","ACITM04",4.0,"  0.00000000000000","  0.00000000000000","   0.0000000000000000","                    NA","","Y","",">140",168.0,14.0,141.0,null,"DAYS",5034.0],["CDISCPILOT01","701","701","01-701-1033","2014-03-18","2014-03-31","Xanomeline Low Dose",54,74.0,"65-80",2,"WHITE",1,"M","Y","Y","N","Week 8",8.0,"WEEK 4","  5",28.0,"2014-04-14","Commands","ACITM04",4.0,"  0.00000000000000","  0.00000000000000","   0.0000000000000000","                    NA","","Y","","2-84",56.0,28.0,2.0,84.0,"DAYS",5019.0],["CDISCPILOT01","701","701","01-701-1033","2014-03-18","2014-03-31","Xanomeline Low Dose",54,74.0,"65-80",2,"WHITE",1,"M","Y","Y","N","Baseline",0.0,"BASELINE","  3",1.0,"2014-03-18","Constructional Praxis","ACITM05",5.0,"  1.00000000000000","  1.00000000000000","                   NA","                    NA","Y","Y","","<=1",1.0,0.0,null,1.0,"DAYS",5005.0],["CDISCPILOT01","701","701","01-701-1033","2014-03-18","2014-03-31","Xanomeline Low Dose",54,74.0,"65-80",2,"WHITE",1,"M","Y","Y","N","Week 24",24.0,"RETRIEVAL","201",182.0,"2014-09-15","Constructional Praxis","ACITM05",5.0,"  0.00000000000000","  1.00000000000000","  -1.0000000000000000"," -100.0000000000000000","","Y","",">140",168.0,14.0,141.0,null,"DAYS",5035.0],["CDISCPILOT01","701","701","01-701-1033","2014-03-18","2014-03-31","Xanomeline Low Dose",54,74.0,"65-80",2,"WHITE",1,"M","Y","Y","N","Week 8",8.0,"WEEK 4","  5",28.0,"2014-04-14","Constructional Praxis","ACITM05",5.0,"  1.00000000000000","  1.00000000000000","   0.0000000000000000","    0.0000000000000000","","Y","","2-84",56.0,28.0,2.0,84.0,"DAYS",5020.0],["CDISCPILOT01","701","701","01-701-1033","2014-03-18","2014-03-31","Xanomeline Low Dose",54,74.0,"65-80",2,"WHITE",1,"M","Y","Y","N","Baseline",0.0,"BASELINE","  3",1.0,"2014-03-18","Ideational Praxis","ACITM06",6.0,"  0.00000000000000","  0.00000000000000","                   NA","                    NA","Y","Y","","<=1",1.0,0.0,null,1.0,"DAYS",5006.0],["CDISCPILOT01","701","701","01-701-1033","2014-03-18","2014-03-31","Xanomeline Low Dose",54,74.0,"65-80",2,"WHITE",1,"M","Y","Y","N","Week 24",24.0,"RETRIEVAL","201",182.0,"2014-09-15","Ideational Praxis","ACITM06",6.0,"  0.00000000000000","  0.00000000000000","   0.0000000000000000","                    NA","","Y","",">140",168.0,14.0,141.0,null,"DAYS",5036.0],["CDISCPILOT01","701","701","01-701-1033","2014-03-18","2014-03-31","Xanomeline Low Dose",54,74.0,"65-80",2,"WHITE",1,"M","Y","Y","N","Week 8",8.0,"WEEK 4","  5",28.0,"2014-04-14","Ideational Praxis","ACITM06",6.0,"  0.00000000000000","  0.00000000000000","   0.0000000000000000","                    NA","","Y","","2-84",56.0,28.0,2.0,84.0,"DAYS",5021.0],["CDISCPILOT01","701","701","01-701-1033","2014-03-18","2014-03-31","Xanomeline Low Dose",54,74.0,"65-80",2,"WHITE",1,"M","Y","Y","N","Baseline",0.0,"BASELINE","  3",1.0,"2014-03-18","Orientation","ACITM07",7.0,"  0.00000000000000","  0.00000000000000","                   NA","                    NA","Y","Y","","<=1",1.0,0.0,null,1.0,"DAYS",5007.0],["CDISCPILOT01","701","701","01-701-1033","2014-03-18","2014-03-31","Xanomeline Low Dose",54,74.0,"65-80",2,"WHITE",1,"M","Y","Y","N","Week 24",24.0,"RETRIEVAL","201",182.0,"2014-09-15","Orientation","ACITM07",7.0,"  0.00000000000000","  0.00000000000000","   0.0000000000000000","                    NA","","Y","",">140",168.0,14.0,141.0,null,"DAYS",5037.0],["CDISCPILOT01","701","701","01-701-1033","2014-03-18","2014-03-31","Xanomeline Low Dose",54,74.0,"65-80",2,"WHITE",1,"M","Y","Y","N","Week 8",8.0,"WEEK 4","  5",28.0,"2014-04-14","Orientation","ACITM07",7.0,"  0.00000000000000","  0.00000000000000","   0.0000000000000000","                    NA","","Y","","2-84",56.0,28.0,2.0,84.0,"DAYS",5022.0],["CDISCPILOT01","701","701","01-701-1033","2014-03-18","2014-03-31","Xanomeline Low Dose",54,74.0,"65-80",2,"WHITE",1,"M","Y","Y","N","Baseline",0.0,"BASELINE","  3",1.0,"2014-03-18","Word Recognition","ACITM08",8.0,"  1.00000000000000","  1.00000000000000","                   NA","                    NA","Y","Y","","<=1",1.0,0.0,null,1.0,"DAYS",5008.0],["CDISCPILOT01","701","701","01-701-1033","2014-03-18","2014-03-31","Xanomeline Low Dose",54,74.0,"65-80",2,"WHITE",1,"M","Y","Y","N","Week 24",24.0,"RETRIEVAL","201",182.0,"2014-09-15","Word Recognition","ACITM08",8.0,"  1.00000000000000","  1.00000000000000","   0.0000000000000000","    0.0000000000000000","","Y","",">140",168.0,14.0,141.0,null,"DAYS",5038.0],["CDISCPILOT01","701","701","01-701-1033","2014-03-18","2014-03-31","Xanomeline Low Dose",54,74.0,"65-80",2,"WHITE",1,"M","Y","Y","N","Week 8",8.0,"WEEK 4","  5",28.0,"2014-04-14","Word Recognition","ACITM08",8.0,"  2.00000000000000","  1.00000000000000","   1.0000000000000000","  100.0000000000000000","","Y","","2-84",56.0,28.0,2.0,84.0,"DAYS",5023.0],["CDISCPILOT01","701","701","01-701-1033","2014-03-18","2014-03-31","Xanomeline Low Dose",54,74.0,"65-80",2,"WHITE",1,"M","Y","Y","N","Baseline",0.0,"BASELINE","  3",1.0,"2014-03-18","Attention/Visual Search Task","ACITM09",9.0," 30.00000000000000"," 30.00000000000000","                   NA","                    NA","Y","Y","","<=1",1.0,0.0,null,1.0,"DAYS",5009.0],["CDISCPILOT01","701","701","01-701-1033","2014-03-18","2014-03-31","Xanomeline Low Dose",54,74.0,"65-80",2,"WHITE",1,"M","Y","Y","N","Week 24",24.0,"RETRIEVAL","201",182.0,"2014-09-15","Attention/Visual Search Task","ACITM09",9.0," 27.00000000000000"," 30.00000000000000","  -3.0000000000000000","  -10.0000000000000000","","Y","",">140",168.0,14.0,141.0,null,"DAYS",5039.0],["CDISCPILOT01","701","701","01-701-1033","2014-03-18","2014-03-31","Xanomeline Low Dose",54,74.0,"65-80",2,"WHITE",1,"M","Y","Y","N","Week 8",8.0,"WEEK 4","  5",28.0,"2014-04-14","Attention/Visual Search Task","ACITM09",9.0," 24.00000000000000"," 30.00000000000000","  -6.0000000000000000","  -20.0000000000000000","","Y","","2-84",56.0,28.0,2.0,84.0,"DAYS",5024.0],["CDISCPILOT01","701","701","01-701-1033","2014-03-18","2014-03-31","Xanomeline Low Dose",54,74.0,"65-80",2,"WHITE",1,"M","Y","Y","N","Baseline",0.0,"BASELINE","  3",1.0,"2014-03-18","Maze Solution","ACITM10",10.0,"  7.00000000000000","  7.00000000000000","                   NA","                    NA","Y","Y","","<=1",1.0,0.0,null,1.0,"DAYS",5010.0],["CDISCPILOT01","701","701","01-701-1033","2014-03-18","2014-03-31","Xanomeline Low Dose",54,74.0,"65-80",2,"WHITE",1,"M","Y","Y","N","Week 24",24.0,"RETRIEVAL","201",182.0,"2014-09-15","Maze Solution","ACITM10",10.0,"  4.00000000000000","  7.00000000000000","  -3.0000000000000000","  -42.8571428571428541","","Y","",">140",168.0,14.0,141.0,null,"DAYS",5040.0],["CDISCPILOT01","701","701","01-701-1033","2014-03-18","2014-03-31","Xanomeline Low Dose",54,74.0,"65-80",2,"WHITE",1,"M","Y","Y","N","Week 8",8.0,"WEEK 4","  5",28.0,"2014-04-14","Maze Solution","ACITM10",10.0,"  6.00000000000000","  7.00000000000000","  -1.0000000000000000","  -14.2857142857142847","","Y","","2-84",56.0,28.0,2.0,84.0,"DAYS",5025.0],["CDISCPILOT01","701","701","01-701-1033","2014-03-18","2014-03-31","Xanomeline Low Dose",54,74.0,"65-80",2,"WHITE",1,"M","Y","Y","N","Baseline",0.0,"BASELINE","  3",1.0,"2014-03-18","Spoken Language Ability","ACITM11",11.0,"  0.00000000000000","  0.00000000000000","                   NA","                    NA","Y","Y","","<=1",1.0,0.0,null,1.0,"DAYS",5011.0],["CDISCPILOT01","701","701","01-701-1033","2014-03-18","2014-03-31","Xanomeline Low Dose",54,74.0,"65-80",2,"WHITE",1,"M","Y","Y","N","Week 24",24.0,"RETRIEVAL","201",182.0,"2014-09-15","Spoken Language Ability","ACITM11",11.0,"  0.00000000000000","  0.00000000000000","   0.0000000000000000","                    NA","","Y","",">140",168.0,14.0,141.0,null,"DAYS",5041.0],["CDISCPILOT01","701","701","01-701-1033","2014-03-18","2014-03-31","Xanomeline Low Dose",54,74.0,"65-80",2,"WHITE",1,"M","Y","Y","N","Week 8",8.0,"WEEK 4","  5",28.0,"2014-04-14","Spoken Language Ability","ACITM11",11.0,"  0.00000000000000","  0.00000000000000","   0.0000000000000000","                    NA","","Y","","2-84",56.0,28.0,2.0,84.0,"DAYS",5026.0],["CDISCPILOT01","701","701","01-701-1033","2014-03-18","2014-03-31","Xanomeline Low Dose",54,74.0,"65-80",2,"WHITE",1,"M","Y","Y","N","Baseline",0.0,"BASELINE","  3",1.0,"2014-03-18","Comprehension Of Spoken Language","ACITM12",12.0,"  0.00000000000000","  0.00000000000000","                   NA","                    NA","Y","Y","","<=1",1.0,0.0,null,1.0,"DAYS",5012.0],["CDISCPILOT01","701","701","01-701-1033","2014-03-18","2014-03-31","Xanomeline Low Dose",54,74.0,"65-80",2,"WHITE",1,"M","Y","Y","N","Week 24",24.0,"RETRIEVAL","201",182.0,"2014-09-15","Comprehension Of Spoken Language","ACITM12",12.0,"  0.00000000000000","  0.00000000000000","   0.0000000000000000","                    NA","","Y","",">140",168.0,14.0,141.0,null,"DAYS",5042.0],["CDISCPILOT01","701","701","01-701-1033","2014-03-18","2014-03-31","Xanomeline Low Dose",54,74.0,"65-80",2,"WHITE",1,"M","Y","Y","N","Week 8",8.0,"WEEK 4","  5",28.0,"2014-04-14","Comprehension Of Spoken Language","ACITM12",12.0,"  0.00000000000000","  0.00000000000000","   0.0000000000000000","                    NA","","Y","","2-84",56.0,28.0,2.0,84.0,"DAYS",5027.0],["CDISCPILOT01","701","701","01-701-1033","2014-03-18","2014-03-31","Xanomeline Low Dose",54,74.0,"65-80",2,"WHITE",1,"M","Y","Y","N","Baseline",0.0,"BASELINE","  3",1.0,"2014-03-18","Word Finding Difficulty In Spontaneous S","ACITM13",13.0,"  0.00000000000000","  0.00000000000000","                   NA","                    NA","Y","Y","","<=1",1.0,0.0,null,1.0,"DAYS",5013.0],["CDISCPILOT01","701","701","01-701-1033","2014-03-18","2014-03-31","Xanomeline Low Dose",54,74.0,"65-80",2,"WHITE",1,"M","Y","Y","N","Week 24",24.0,"RETRIEVAL","201",182.0,"2014-09-15","Word Finding Difficulty In Spontaneous S","ACITM13",13.0,"  0.00000000000000","  0.00000000000000","   0.0000000000000000","                    NA","","Y","",">140",168.0,14.0,141.0,null,"DAYS",5043.0],["CDISCPILOT01","701","701","01-701-1033","2014-03-18","2014-03-31","Xanomeline Low Dose",54,74.0,"65-80",2,"WHITE",1,"M","Y","Y","N","Week 8",8.0,"WEEK 4","  5",28.0,"2014-04-14","Word Finding Difficulty In Spontaneous S","ACITM13",13.0,"  0.00000000000000","  0.00000000000000","   0.0000000000000000","                    NA","","Y","","2-84",56.0,28.0,2.0,84.0,"DAYS",5028.0],["CDISCPILOT01","701","701","01-701-1033","2014-03-18","2014-03-31","Xanomeline Low Dose",54,74.0,"65-80",2,"WHITE",1,"M","Y","Y","N","Baseline",0.0,"BASELINE","  3",1.0,"2014-03-18","Recall Of Test Instructions","ACITM14",14.0,"  0.00000000000000","  0.00000000000000","                   NA","                    NA","Y","Y","","<=1",1.0,0.0,null,1.0,"DAYS",5014.0],["CDISCPILOT01","701","701","01-701-1033","2014-03-18","2014-03-31","Xanomeline Low Dose",54,74.0,"65-80",2,"WHITE",1,"M","Y","Y","N","Week 24",24.0,"RETRIEVAL","201",182.0,"2014-09-15","Recall Of Test Instructions","ACITM14",14.0,"  0.00000000000000","  0.00000000000000","   0.0000000000000000","                    NA","","Y","",">140",168.0,14.0,141.0,null,"DAYS",5044.0],["CDISCPILOT01","701","701","01-701-1033","2014-03-18","2014-03-31","Xanomeline Low Dose",54,74.0,"65-80",2,"WHITE",1,"M","Y","Y","N","Week 8",8.0,"WEEK 4","  5",28.0,"2014-04-14","Recall Of Test Instructions","ACITM14",14.0,"  0.00000000000000","  0.00000000000000","   0.0000000000000000","                    NA","","Y","","2-84",56.0,28.0,2.0,84.0,"DAYS",5029.0],["CDISCPILOT01","701","701","01-701-1033","2014-03-18","2014-03-31","Xanomeline Low Dose",54,74.0,"65-80",2,"WHITE",1,"M","Y","Y","N","Baseline",0.0,"BASELINE","  3",1.0,"2014-03-18","Adas-Cog(11) Subscore","ACTOT",15.0,"  7.00000000000000","  7.00000000000000","                   NA","                    NA","Y","Y","","<=1",1.0,0.0,null,1.0,"DAYS",5015.0],["CDISCPILOT01","701","701","01-701-1033","2014-03-18","2014-03-31","Xanomeline Low Dose",54,74.0,"65-80",2,"WHITE",1,"M","Y","Y","N","Week 16",16.0,"WEEK 4","  5",28.0,"2014-04-14","Adas-Cog(11) Subscore","ACTOT",15.0,"  8.00000000000000","  7.00000000000000","   1.0000000000000000","   14.2857142857142847","","Y","LOCF","85-140",112.0,84.0,85.0,140.0,"DAYS",5030.0],["CDISCPILOT01","701","701","01-701-1033","2014-03-18","2014-03-31","Xanomeline Low Dose",54,74.0,"65-80",2,"WHITE",1,"M","Y","Y","N","Week 24",24.0,"RETRIEVAL","201",182.0,"2014-09-15","Adas-Cog(11) Subscore","ACTOT",15.0,"  7.00000000000000","  7.00000000000000","   0.0000000000000000","    0.0000000000000000","","Y","",">140",168.0,14.0,141.0,null,"DAYS",5045.0],["CDISCPILOT01","701","701","01-701-1033","2014-03-18","2014-03-31","Xanomeline Low Dose",54,74.0,"65-80",2,"WHITE",1,"M","Y","Y","N","Week 8",8.0,"WEEK 4","  5",28.0,"2014-04-14","Adas-Cog(11) Subscore","ACTOT",15.0,"  8.00000000000000","  7.00000000000000","   1.0000000000000000","   14.2857142857142847","","Y","","2-84",56.0,28.0,2.0,84.0,"DAYS",5030.0],["CDISCPILOT01","701","701","01-701-1034","2014-07-01","2014-12-30","Xanomeline High Dose",81,77.0,"65-80",2,"WHITE",1,"F","Y","Y","Y","Baseline",0.0,"BASELINE","  3",1.0,"2014-07-01","Word Recall Task","ACITM01",1.0,"  5.00000000000000","  5.00000000000000","                   NA","                    NA","Y","Y","","<=1",1.0,0.0,null,1.0,"DAYS",5001.0],["CDISCPILOT01","701","701","01-701-1034","2014-07-01","2014-12-30","Xanomeline High Dose",81,77.0,"65-80",2,"WHITE",1,"F","Y","Y","Y","Week 16",16.0,"WEEK 16"," 10",113.0,"2014-10-21","Word Recall Task","ACITM01",1.0,"  6.00000000000000","  5.00000000000000","   1.0000000000000000","   20.0000000000000000","","Y","","85-140",112.0,1.0,85.0,140.0,"DAYS",5031.0],["CDISCPILOT01","701","701","01-701-1034","2014-07-01","2014-12-30","Xanomeline High Dose",81,77.0,"65-80",2,"WHITE",1,"F","Y","Y","Y","Week 24",24.0,"WEEK 24"," 12",170.0,"2014-12-17","Word Recall Task","ACITM01",1.0,"  6.00000000000000","  5.00000000000000","   1.0000000000000000","   20.0000000000000000","","Y","",">140",168.0,2.0,141.0,null,"DAYS",5046.0],["CDISCPILOT01","701","701","01-701-1034","2014-07-01","2014-12-30","Xanomeline High Dose",81,77.0,"65-80",2,"WHITE",1,"F","Y","Y","Y","Week 8",8.0,"WEEK 8","  8",57.0,"2014-08-26","Word Recall Task","ACITM01",1.0,"  5.00000000000000","  5.00000000000000","   0.0000000000000000","    0.0000000000000000","","Y","","2-84",56.0,1.0,2.0,84.0,"DAYS",5016.0],["CDISCPILOT01","701","701","01-701-1034","2014-07-01","2014-12-30","Xanomeline High Dose",81,77.0,"65-80",2,"WHITE",1,"F","Y","Y","Y","Baseline",0.0,"BASELINE","  3",1.0,"2014-07-01","Naming Objects And Fingers (Refer To 5 C","ACITM02",2.0,"  0.00000000000000","  0.00000000000000","                   NA","                    NA","Y","Y","","<=1",1.0,0.0,null,1.0,"DAYS",5002.0],["CDISCPILOT01","701","701","01-701-1034","2014-07-01","2014-12-30","Xanomeline High Dose",81,77.0,"65-80",2,"WHITE",1,"F","Y","Y","Y","Week 16",16.0,"WEEK 16"," 10",113.0,"2014-10-21","Naming Objects And Fingers (Refer To 5 C","ACITM02",2.0,"  1.00000000000000","  0.00000000000000","   1.0000000000000000","                    NA","","Y","","85-140",112.0,1.0,85.0,140.0,"DAYS",5032.0],["CDISCPILOT01","701","701","01-701-1034","2014-07-01","2014-12-30","Xanomeline High Dose",81,77.0,"65-80",2,"WHITE",1,"F","Y","Y","Y","Week 24",24.0,"WEEK 24"," 12",170.0,"2014-12-17","Naming Objects And Fingers (Refer To 5 C","ACITM02",2.0,"  1.00000000000000","  0.00000000000000","   1.0000000000000000","                    NA","","Y","",">140",168.0,2.0,141.0,null,"DAYS",5047.0],["CDISCPILOT01","701","701","01-701-1034","2014-07-01","2014-12-30","Xanomeline High Dose",81,77.0,"65-80",2,"WHITE",1,"F","Y","Y","Y","Week 8",8.0,"WEEK 8","  8",57.0,"2014-08-26","Naming Objects And Fingers (Refer To 5 C","ACITM02",2.0,"  1.00000000000000","  0.00000000000000","   1.0000000000000000","                    NA","","Y","","2-84",56.0,1.0,2.0,84.0,"DAYS",5017.0],["CDISCPILOT01","701","701","01-701-1034","2014-07-01","2014-12-30","Xanomeline High Dose",81,77.0,"65-80",2,"WHITE",1,"F","Y","Y","Y","Baseline",0.0,"BASELINE","  3",1.0,"2014-07-01","Delayed Word Recall","ACITM03",3.0,"  9.00000000000000","  9.00000000000000","                   NA","                    NA","Y","Y","","<=1",1.0,0.0,null,1.0,"DAYS",5003.0],["CDISCPILOT01","701","701","01-701-1034","2014-07-01","2014-12-30","Xanomeline High Dose",81,77.0,"65-80",2,"WHITE",1,"F","Y","Y","Y","Week 16",16.0,"WEEK 16"," 10",113.0,"2014-10-21","Delayed Word Recall","ACITM03",3.0," 10.00000000000000","  9.00000000000000","   1.0000000000000000","   11.1111111111111107","","Y","","85-140",112.0,1.0,85.0,140.0,"DAYS",5033.0],["CDISCPILOT01","701","701","01-701-1034","2014-07-01","2014-12-30","Xanomeline High Dose",81,77.0,"65-80",2,"WHITE",1,"F","Y","Y","Y","Week 24",24.0,"WEEK 24"," 12",170.0,"2014-12-17","Delayed Word Recall","ACITM03",3.0," 10.00000000000000","  9.00000000000000","   1.0000000000000000","   11.1111111111111107","","Y","",">140",168.0,2.0,141.0,null,"DAYS",5048.0],["CDISCPILOT01","701","701","01-701-1034","2014-07-01","2014-12-30","Xanomeline High Dose",81,77.0,"65-80",2,"WHITE",1,"F","Y","Y","Y","Week 8",8.0,"WEEK 8","  8",57.0,"2014-08-26","Delayed Word Recall","ACITM03",3.0,"  7.00000000000000","  9.00000000000000","  -2.0000000000000000","  -22.2222222222222214","","Y","","2-84",56.0,1.0,2.0,84.0,"DAYS",5018.0],["CDISCPILOT01","701","701","01-701-1034","2014-07-01","2014-12-30","Xanomeline High Dose",81,77.0,"65-80",2,"WHITE",1,"F","Y","Y","Y","Baseline",0.0,"BASELINE","  3",1.0,"2014-07-01","Commands","ACITM04",4.0,"  0.00000000000000","  0.00000000000000","                   NA","                    NA","Y","Y","","<=1",1.0,0.0,null,1.0,"DAYS",5004.0],["CDISCPILOT01","701","701","01-701-1034","2014-07-01","2014-12-30","Xanomeline High Dose",81,77.0,"65-80",2,"WHITE",1,"F","Y","Y","Y","Week 16",16.0,"WEEK 16"," 10",113.0,"2014-10-21","Commands","ACITM04",4.0,"  0.00000000000000","  0.00000000000000","   0.0000000000000000","                    NA","","Y","","85-140",112.0,1.0,85.0,140.0,"DAYS",5034.0],["CDISCPILOT01","701","701","01-701-1034","2014-07-01","2014-12-30","Xanomeline High Dose",81,77.0,"65-80",2,"WHITE",1,"F","Y","Y","Y","Week 24",24.0,"WEEK 24"," 12",170.0,"2014-12-17","Commands","ACITM04",4.0,"  0.00000000000000","  0.00000000000000","   0.0000000000000000","                    NA","","Y","",">140",168.0,2.0,141.0,null,"DAYS",5049.0],["CDISCPILOT01","701","701","01-701-1034","2014-07-01","2014-12-30","Xanomeline High Dose",81,77.0,"65-80",2,"WHITE",1,"F","Y","Y","Y","Week 8",8.0,"WEEK 8","  8",57.0,"2014-08-26","Commands","ACITM04",4.0,"  0.00000000000000","  0.00000000000000","   0.0000000000000000","                    NA","","Y","","2-84",56.0,1.0,2.0,84.0,"DAYS",5019.0],["CDISCPILOT01","701","701","01-701-1034","2014-07-01","2014-12-30","Xanomeline High Dose",81,77.0,"65-80",2,"WHITE",1,"F","Y","Y","Y","Baseline",0.0,"BASELINE","  3",1.0,"2014-07-01","Constructional Praxis","ACITM05",5.0,"  2.00000000000000","  2.00000000000000","                   NA","                    NA","Y","Y","","<=1",1.0,0.0,null,1.0,"DAYS",5005.0],["CDISCPILOT01","701","701","01-701-1034","2014-07-01","2014-12-30","Xanomeline High Dose",81,77.0,"65-80",2,"WHITE",1,"F","Y","Y","Y","Week 16",16.0,"WEEK 16"," 10",113.0,"2014-10-21","Constructional Praxis","ACITM05",5.0,"  3.00000000000000","  2.00000000000000","   1.0000000000000000","   50.0000000000000000","","Y","","85-140",112.0,1.0,85.0,140.0,"DAYS",5035.0],["CDISCPILOT01","701","701","01-701-1034","2014-07-01","2014-12-30","Xanomeline High Dose",81,77.0,"65-80",2,"WHITE",1,"F","Y","Y","Y","Week 24",24.0,"WEEK 24"," 12",170.0,"2014-12-17","Constructional Praxis","ACITM05",5.0,"  2.00000000000000","  2.00000000000000","   0.0000000000000000","    0.0000000000000000","","Y","",">140",168.0,2.0,141.0,null,"DAYS",5050.0],["CDISCPILOT01","701","701","01-701-1034","2014-07-01","2014-12-30","Xanomeline High Dose",81,77.0,"65-80",2,"WHITE",1,"F","Y","Y","Y","Week 8",8.0,"WEEK 8","  8",57.0,"2014-08-26","Constructional Praxis","ACITM05",5.0,"  1.00000000000000","  2.00000000000000","  -1.0000000000000000","  -50.0000000000000000","","Y","","2-84",56.0,1.0,2.0,84.0,"DAYS",5020.0],["CDISCPILOT01","701","701","01-701-1034","2014-07-01","2014-12-30","Xanomeline High Dose",81,77.0,"65-80",2,"WHITE",1,"F","Y","Y","Y","Baseline",0.0,"BASELINE","  3",1.0,"2014-07-01","Ideational Praxis","ACITM06",6.0,"  1.00000000000000","  1.00000000000000","                   NA","                    NA","Y","Y","","<=1",1.0,0.0,null,1.0,"DAYS",5006.0],["CDISCPILOT01","701","701","01-701-1034","2014-07-01","2014-12-30","Xanomeline High Dose",81,77.0,"65-80",2,"WHITE",1,"F","Y","Y","Y","Week 16",16.0,"WEEK 16"," 10",113.0,"2014-10-21","Ideational Praxis","ACITM06",6.0,"  0.00000000000000","  1.00000000000000","  -1.0000000000000000"," -100.0000000000000000","","Y","","85-140",112.0,1.0,85.0,140.0,"DAYS",5036.0],["CDISCPILOT01","701","701","01-701-1034","2014-07-01","2014-12-30","Xanomeline High Dose",81,77.0,"65-80",2,"WHITE",1,"F","Y","Y","Y","Week 24",24.0,"WEEK 24"," 12",170.0,"2014-12-17","Ideational Praxis","ACITM06",6.0,"  0.00000000000000","  1.00000000000000","  -1.0000000000000000"," -100.0000000000000000","","Y","",">140",168.0,2.0,141.0,null,"DAYS",5051.0],["CDISCPILOT01","701","701","01-701-1034","2014-07-01","2014-12-30","Xanomeline High Dose",81,77.0,"65-80",2,"WHITE",1,"F","Y","Y","Y","Week 8",8.0,"WEEK 8","  8",57.0,"2014-08-26","Ideational Praxis","ACITM06",6.0,"  0.00000000000000","  1.00000000000000","  -1.0000000000000000"," -100.0000000000000000","","Y","","2-84",56.0,1.0,2.0,84.0,"DAYS",5021.0],["CDISCPILOT01","701","701","01-701-1034","2014-07-01","2014-12-30","Xanomeline High Dose",81,77.0,"65-80",2,"WHITE",1,"F","Y","Y","Y","Baseline",0.0,"BASELINE","  3",1.0,"2014-07-01","Orientation","ACITM07",7.0,"  0.00000000000000","  0.00000000000000","                   NA","                    NA","Y","Y","","<=1",1.0,0.0,null,1.0,"DAYS",5007.0],["CDISCPILOT01","701","701","01-701-1034","2014-07-01","2014-12-30","Xanomeline High Dose",81,77.0,"65-80",2,"WHITE",1,"F","Y","Y","Y","Week 16",16.0,"WEEK 16"," 10",113.0,"2014-10-21","Orientation","ACITM07",7.0,"  0.00000000000000","  0.00000000000000","   0.0000000000000000","                    NA","","Y","","85-140",112.0,1.0,85.0,140.0,"DAYS",5037.0],["CDISCPILOT01","701","701","01-701-1034","2014-07-01","2014-12-30","Xanomeline High Dose",81,77.0,"65-80",2,"WHITE",1,"F","Y","Y","Y","Week 24",24.0,"WEEK 24"," 12",170.0,"2014-12-17","Orientation","ACITM07",7.0,"  0.00000000000000","  0.00000000000000","   0.0000000000000000","                    NA","","Y","",">140",168.0,2.0,141.0,null,"DAYS",5052.0],["CDISCPILOT01","701","701","01-701-1034","2014-07-01","2014-12-30","Xanomeline High Dose",81,77.0,"65-80",2,"WHITE",1,"F","Y","Y","Y","Week 8",8.0,"WEEK 8","  8",57.0,"2014-08-26","Orientation","ACITM07",7.0,"  0.00000000000000","  0.00000000000000","   0.0000000000000000","                    NA","","Y","","2-84",56.0,1.0,2.0,84.0,"DAYS",5022.0],["CDISCPILOT01","701","701","01-701-1034","2014-07-01","2014-12-30","Xanomeline High Dose",81,77.0,"65-80",2,"WHITE",1,"F","Y","Y","Y","Baseline",0.0,"BASELINE","  3",1.0,"2014-07-01","Word Recognition","ACITM08",8.0,"  3.00000000000000","  3.00000000000000","                   NA","                    NA","Y","Y","","<=1",1.0,0.0,null,1.0,"DAYS",5008.0],["CDISCPILOT01","701","701","01-701-1034","2014-07-01","2014-12-30","Xanomeline High Dose",81,77.0,"65-80",2,"WHITE",1,"F","Y","Y","Y","Week 16",16.0,"WEEK 16"," 10",113.0,"2014-10-21","Word Recognition","ACITM08",8.0,"  4.00000000000000","  3.00000000000000","   1.0000000000000000","   33.3333333333333286","","Y","","85-140",112.0,1.0,85.0,140.0,"DAYS",5038.0],["CDISCPILOT01","701","701","01-701-1034","2014-07-01","2014-12-30","Xanomeline High Dose",81,77.0,"65-80",2,"WHITE",1,"F","Y","Y","Y","Week 24",24.0,"WEEK 24"," 12",170.0,"2014-12-17","Word Recognition","ACITM08",8.0,"  2.00000000000000","  3.00000000000000","  -1.0000000000000000","  -33.3333333333333286","","Y","",">140",168.0,2.0,141.0,null,"DAYS",5053.0],["CDISCPILOT01","701","701","01-701-1034","2014-07-01","2014-12-30","Xanomeline High Dose",81,77.0,"65-80",2,"WHITE",1,"F","Y","Y","Y","Week 8",8.0,"WEEK 8","  8",57.0,"2014-08-26","Word Recognition","ACITM08",8.0,"  4.00000000000000","  3.00000000000000","   1.0000000000000000","   33.3333333333333286","","Y","","2-84",56.0,1.0,2.0,84.0,"DAYS",5023.0],["CDISCPILOT01","701","701","01-701-1034","2014-07-01","2014-12-30","Xanomeline High Dose",81,77.0,"65-80",2,"WHITE",1,"F","Y","Y","Y","Baseline",0.0,"BASELINE","  3",1.0,"2014-07-01","Attention/Visual Search Task","ACITM09",9.0," 20.00000000000000"," 20.00000000000000","                   NA","                    NA","Y","Y","","<=1",1.0,0.0,null,1.0,"DAYS",5009.0],["CDISCPILOT01","701","701","01-701-1034","2014-07-01","2014-12-30","Xanomeline High Dose",81,77.0,"65-80",2,"WHITE",1,"F","Y","Y","Y","Week 16",16.0,"WEEK 16"," 10",113.0,"2014-10-21","Attention/Visual Search Task","ACITM09",9.0," 27.00000000000000"," 20.00000000000000","   7.0000000000000000","   35.0000000000000000","","Y","","85-140",112.0,1.0,85.0,140.0,"DAYS",5039.0],["CDISCPILOT01","701","701","01-701-1034","2014-07-01","2014-12-30","Xanomeline High Dose",81,77.0,"65-80",2,"WHITE",1,"F","Y","Y","Y","Week 24",24.0,"WEEK 24"," 12",170.0,"2014-12-17","Attention/Visual Search Task","ACITM09",9.0," 31.00000000000000"," 20.00000000000000","  11.0000000000000000","   55.0000000000000071","","Y","",">140",168.0,2.0,141.0,null,"DAYS",5054.0],["CDISCPILOT01","701","701","01-701-1034","2014-07-01","2014-12-30","Xanomeline High Dose",81,77.0,"65-80",2,"WHITE",1,"F","Y","Y","Y","Week 8",8.0,"WEEK 8","  8",57.0,"2014-08-26","Attention/Visual Search Task","ACITM09",9.0," 20.00000000000000"," 20.00000000000000","   0.0000000000000000","    0.0000000000000000","","Y","","2-84",56.0,1.0,2.0,84.0,"DAYS",5024.0],["CDISCPILOT01","701","701","01-701-1034","2014-07-01","2014-12-30","Xanomeline High Dose",81,77.0,"65-80",2,"WHITE",1,"F","Y","Y","Y","Baseline",0.0,"BASELINE","  3",1.0,"2014-07-01","Maze Solution","ACITM10",10.0,"  5.00000000000000","  5.00000000000000","                   NA","                    NA","Y","Y","","<=1",1.0,0.0,null,1.0,"DAYS",5010.0],["CDISCPILOT01","701","701","01-701-1034","2014-07-01","2014-12-30","Xanomeline High Dose",81,77.0,"65-80",2,"WHITE",1,"F","Y","Y","Y","Week 16",16.0,"WEEK 16"," 10",113.0,"2014-10-21","Maze Solution","ACITM10",10.0,"  5.00000000000000","  5.00000000000000","   0.0000000000000000","    0.0000000000000000","","Y","","85-140",112.0,1.0,85.0,140.0,"DAYS",5040.0],["CDISCPILOT01","701","701","01-701-1034","2014-07-01","2014-12-30","Xanomeline High Dose",81,77.0,"65-80",2,"WHITE",1,"F","Y","Y","Y","Week 24",24.0,"WEEK 24"," 12",170.0,"2014-12-17","Maze Solution","ACITM10",10.0,"  7.00000000000000","  5.00000000000000","   2.0000000000000000","   40.0000000000000000","","Y","",">140",168.0,2.0,141.0,null,"DAYS",5055.0],["CDISCPILOT01","701","701","01-701-1034","2014-07-01","2014-12-30","Xanomeline High Dose",81,77.0,"65-80",2,"WHITE",1,"F","Y","Y","Y","Week 8",8.0,"WEEK 8","  8",57.0,"2014-08-26","Maze Solution","ACITM10",10.0,"  4.00000000000000","  5.00000000000000","  -1.0000000000000000","  -20.0000000000000000","","Y","","2-84",56.0,1.0,2.0,84.0,"DAYS",5025.0],["CDISCPILOT01","701","701","01-701-1034","2014-07-01","2014-12-30","Xanomeline High Dose",81,77.0,"65-80",2,"WHITE",1,"F","Y","Y","Y","Baseline",0.0,"BASELINE","  3",1.0,"2014-07-01","Spoken Language Ability","ACITM11",11.0,"  0.00000000000000","  0.00000000000000","                   NA","                    NA","Y","Y","","<=1",1.0,0.0,null,1.0,"DAYS",5011.0],["CDISCPILOT01","701","701","01-701-1034","2014-07-01","2014-12-30","Xanomeline High Dose",81,77.0,"65-80",2,"WHITE",1,"F","Y","Y","Y","Week 16",16.0,"WEEK 16"," 10",113.0,"2014-10-21","Spoken Language Ability","ACITM11",11.0,"  0.00000000000000","  0.00000000000000","   0.0000000000000000","                    NA","","Y","","85-140",112.0,1.0,85.0,140.0,"DAYS",5041.0],["CDISCPILOT01","701","701","01-701-1034","2014-07-01","2014-12-30","Xanomeline High Dose",81,77.0,"65-80",2,"WHITE",1,"F","Y","Y","Y","Week 24",24.0,"WEEK 24"," 12",170.0,"2014-12-17","Spoken Language Ability","ACITM11",11.0,"  0.00000000000000","  0.00000000000000","   0.0000000000000000","                    NA","","Y","",">140",168.0,2.0,141.0,null,"DAYS",5056.0],["CDISCPILOT01","701","701","01-701-1034","2014-07-01","2014-12-30","Xanomeline High Dose",81,77.0,"65-80",2,"WHITE",1,"F","Y","Y","Y","Week 8",8.0,"WEEK 8","  8",57.0,"2014-08-26","Spoken Language Ability","ACITM11",11.0,"  0.00000000000000","  0.00000000000000","   0.0000000000000000","                    NA","","Y","","2-84",56.0,1.0,2.0,84.0,"DAYS",5026.0],["CDISCPILOT01","701","701","01-701-1034","2014-07-01","2014-12-30","Xanomeline High Dose",81,77.0,"65-80",2,"WHITE",1,"F","Y","Y","Y","Baseline",0.0,"BASELINE","  3",1.0,"2014-07-01","Comprehension Of Spoken Language","ACITM12",12.0,"  0.00000000000000","  0.00000000000000","                   NA","                    NA","Y","Y","","<=1",1.0,0.0,null,1.0,"DAYS",5012.0],["CDISCPILOT01","701","701","01-701-1034","2014-07-01","2014-12-30","Xanomeline High Dose",81,77.0,"65-80",2,"WHITE",1,"F","Y","Y","Y","Week 16",16.0,"WEEK 16"," 10",113.0,"2014-10-21","Comprehension Of Spoken Language","ACITM12",12.0,"  0.00000000000000","  0.00000000000000","   0.0000000000000000","                    NA","","Y","","85-140",112.0,1.0,85.0,140.0,"DAYS",5042.0],["CDISCPILOT01","701","701","01-701-1034","2014-07-01","2014-12-30","Xanomeline High Dose",81,77.0,"65-80",2,"WHITE",1,"F","Y","Y","Y","Week 24",24.0,"WEEK 24"," 12",170.0,"2014-12-17","Comprehension Of Spoken Language","ACITM12",12.0,"  0.00000000000000","  0.00000000000000","   0.0000000000000000","                    NA","","Y","",">140",168.0,2.0,141.0,null,"DAYS",5057.0],["CDISCPILOT01","701","701","01-701-1034","2014-07-01","2014-12-30","Xanomeline High Dose",81,77.0,"65-80",2,"WHITE",1,"F","Y","Y","Y","Week 8",8.0,"WEEK 8","  8",57.0,"2014-08-26","Comprehension Of Spoken Language","ACITM12",12.0,"  0.00000000000000","  0.00000000000000","   0.0000000000000000","                    NA","","Y","","2-84",56.0,1.0,2.0,84.0,"DAYS",5027.0],["CDISCPILOT01","701","701","01-701-1034","2014-07-01","2014-12-30","Xanomeline High Dose",81,77.0,"65-80",2,"WHITE",1,"F","Y","Y","Y","Baseline",0.0,"BASELINE","  3",1.0,"2014-07-01","Word Finding Difficulty In Spontaneous S","ACITM13",13.0,"  0.00000000000000","  0.00000000000000","                   NA","                    NA","Y","Y","","<=1",1.0,0.0,null,1.0,"DAYS",5013.0],["CDISCPILOT01","701","701","01-701-1034","2014-07-01","2014-12-30","Xanomeline High Dose",81,77.0,"65-80",2,"WHITE",1,"F","Y","Y","Y","Week 16",16.0,"WEEK 16"," 10",113.0,"2014-10-21","Word Finding Difficulty In Spontaneous S","ACITM13",13.0,"  0.00000000000000","  0.00000000000000","   0.0000000000000000","                    NA","","Y","","85-140",112.0,1.0,85.0,140.0,"DAYS",5043.0],["CDISCPILOT01","701","701","01-701-1034","2014-07-01","2014-12-30","Xanomeline High Dose",81,77.0,"65-80",2,"WHITE",1,"F","Y","Y","Y","Week 24",24.0,"WEEK 24"," 12",170.0,"2014-12-17","Word Finding Difficulty In Spontaneous S","ACITM13",13.0,"  0.00000000000000","  0.00000000000000","   0.0000000000000000","                    NA","","Y","",">140",168.0,2.0,141.0,null,"DAYS",5058.0],["CDISCPILOT01","701","701","01-701-1034","2014-07-01","2014-12-30","Xanomeline High Dose",81,77.0,"65-80",2,"WHITE",1,"F","Y","Y","Y","Week 8",8.0,"WEEK 8","  8",57.0,"2014-08-26","Word Finding Difficulty In Spontaneous S","ACITM13",13.0,"  1.00000000000000","  0.00000000000000","   1.0000000000000000","                    NA","","Y","","2-84",56.0,1.0,2.0,84.0,"DAYS",5028.0],["CDISCPILOT01","701","701","01-701-1034","2014-07-01","2014-12-30","Xanomeline High Dose",81,77.0,"65-80",2,"WHITE",1,"F","Y","Y","Y","Baseline",0.0,"BASELINE","  3",1.0,"2014-07-01","Recall Of Test Instructions","ACITM14",14.0,"  0.00000000000000","  0.00000000000000","                   NA","                    NA","Y","Y","","<=1",1.0,0.0,null,1.0,"DAYS",5014.0],["CDISCPILOT01","701","701","01-701-1034","2014-07-01","2014-12-30","Xanomeline High Dose",81,77.0,"65-80",2,"WHITE",1,"F","Y","Y","Y","Week 16",16.0,"WEEK 16"," 10",113.0,"2014-10-21","Recall Of Test Instructions","ACITM14",14.0,"  0.00000000000000","  0.00000000000000","   0.0000000000000000","                    NA","","Y","","85-140",112.0,1.0,85.0,140.0,"DAYS",5044.0],["CDISCPILOT01","701","701","01-701-1034","2014-07-01","2014-12-30","Xanomeline High Dose",81,77.0,"65-80",2,"WHITE",1,"F","Y","Y","Y","Week 24",24.0,"WEEK 24"," 12",170.0,"2014-12-17","Recall Of Test Instructions","ACITM14",14.0,"  0.00000000000000","  0.00000000000000","   0.0000000000000000","                    NA","","Y","",">140",168.0,2.0,141.0,null,"DAYS",5059.0],["CDISCPILOT01","701","701","01-701-1034","2014-07-01","2014-12-30","Xanomeline High Dose",81,77.0,"65-80",2,"WHITE",1,"F","Y","Y","Y","Week 8",8.0,"WEEK 8","  8",57.0,"2014-08-26","Recall Of Test Instructions","ACITM14",14.0,"  0.00000000000000","  0.00000000000000","   0.0000000000000000","                    NA","","Y","","2-84",56.0,1.0,2.0,84.0,"DAYS",5029.0],["CDISCPILOT01","701","701","01-701-1034","2014-07-01","2014-12-30","Xanomeline High Dose",81,77.0,"65-80",2,"WHITE",1,"F","Y","Y","Y","Baseline",0.0,"BASELINE","  3",1.0,"2014-07-01","Adas-Cog(11) Subscore","ACTOT",15.0," 11.00000000000000"," 11.00000000000000","                   NA","                    NA","Y","Y","","<=1",1.0,0.0,null,1.0,"DAYS",5015.0],["CDISCPILOT01","701","701","01-701-1034","2014-07-01","2014-12-30","Xanomeline High Dose",81,77.0,"65-80",2,"WHITE",1,"F","Y","Y","Y","Week 16",16.0,"WEEK 16"," 10",113.0,"2014-10-21","Adas-Cog(11) Subscore","ACTOT",15.0," 14.00000000000000"," 11.00000000000000","   3.0000000000000000","   27.2727272727272698","","Y","","85-140",112.0,1.0,85.0,140.0,"DAYS",5045.0],["CDISCPILOT01","701","701","01-701-1034","2014-07-01","2014-12-30","Xanomeline High Dose",81,77.0,"65-80",2,"WHITE",1,"F","Y","Y","Y","Week 24",24.0,"WEEK 24"," 12",170.0,"2014-12-17","Adas-Cog(11) Subscore","ACTOT",15.0," 11.00000000000000"," 11.00000000000000","   0.0000000000000000","    0.0000000000000000","","Y","",">140",168.0,2.0,141.0,null,"DAYS",5060.0],["CDISCPILOT01","701","701","01-701-1034","2014-07-01","2014-12-30","Xanomeline High Dose",81,77.0,"65-80",2,"WHITE",1,"F","Y","Y","Y","Week 8",8.0,"WEEK 8","  8",57.0,"2014-08-26","Adas-Cog(11) Subscore","ACTOT",15.0," 12.00000000000000"," 11.00000000000000","   1.0000000000000000","    9.0909090909090917","","Y","","2-84",56.0,1.0,2.0,84.0,"DAYS",5030.0],["CDISCPILOT01","701","701","01-701-1047","2013-02-12","2013-03-09","Placebo",0,85.0,">80",3,"WHITE",1,"F","Y","Y","N","Baseline",0.0,"BASELINE","  3",1.0,"2013-02-12","Word Recall Task","ACITM01",1.0,"  6.00000000000000","  6.00000000000000","                   NA","                    NA","Y","Y","","<=1",1.0,0.0,null,1.0,"DAYS",5001.0],["CDISCPILOT01","701","701","01-701-1047","2013-02-12","2013-03-09","Placebo",0,85.0,">80",3,"WHITE",1,"F","Y","Y","N","Week 24",24.0,"RETRIEVAL","201",167.0,"2013-07-28","Word Recall Task","ACITM01",1.0,"  7.00000000000000","  6.00000000000000","   1.0000000000000000","   16.6666666666666643","","Y","",">140",168.0,1.0,141.0,null,"DAYS",5031.0],["CDISCPILOT01","701","701","01-701-1047","2013-02-12","2013-03-09","Placebo",0,85.0,">80",3,"WHITE",1,"F","Y","Y","N","Week 8",8.0,"AMBUL ECG REMOVAL","  6",46.0,"2013-03-29","Word Recall Task","ACITM01",1.0,"  7.00000000000000","  6.00000000000000","   1.0000000000000000","   16.6666666666666643","","Y","","2-84",56.0,10.0,2.0,84.0,"DAYS",5016.0],["CDISCPILOT01","701","701","01-701-1047","2013-02-12","2013-03-09","Placebo",0,85.0,">80",3,"WHITE",1,"F","Y","Y","N","Baseline",0.0,"BASELINE","  3",1.0,"2013-02-12","Naming Objects And Fingers (Refer To 5 C","ACITM02",2.0,"  0.00000000000000","  0.00000000000000","                   NA","                    NA","Y","Y","","<=1",1.0,0.0,null,1.0,"DAYS",5002.0],["CDISCPILOT01","701","701","01-701-1047","2013-02-12","2013-03-09","Placebo",0,85.0,">80",3,"WHITE",1,"F","Y","Y","N","Week 24",24.0,"RETRIEVAL","201",167.0,"2013-07-28","Naming Objects And Fingers (Refer To 5 C","ACITM02",2.0,"  0.00000000000000","  0.00000000000000","   0.0000000000000000","                    NA","","Y","",">140",168.0,1.0,141.0,null,"DAYS",5032.0],["CDISCPILOT01","701","701","01-701-1047","2013-02-12","2013-03-09","Placebo",0,85.0,">80",3,"WHITE",1,"F","Y","Y","N","Week 8",8.0,"AMBUL ECG REMOVAL","  6",46.0,"2013-03-29","Naming Objects And Fingers (Refer To 5 C","ACITM02",2.0,"  0.00000000000000","  0.00000000000000","   0.0000000000000000","                    NA","","Y","","2-84",56.0,10.0,2.0,84.0,"DAYS",5017.0],["CDISCPILOT01","701","701","01-701-1047","2013-02-12","2013-03-09","Placebo",0,85.0,">80",3,"WHITE",1,"F","Y","Y","N","Baseline",0.0,"BASELINE","  3",1.0,"2013-02-12","Delayed Word Recall","ACITM03",3.0," 10.00000000000000"," 10.00000000000000","                   NA","                    NA","Y","Y","","<=1",1.0,0.0,null,1.0,"DAYS",5003.0],["CDISCPILOT01","701","701","01-701-1047","2013-02-12","2013-03-09","Placebo",0,85.0,">80",3,"WHITE",1,"F","Y","Y","N","Week 24",24.0,"RETRIEVAL","201",167.0,"2013-07-28","Delayed Word Recall","ACITM03",3.0," 10.00000000000000"," 10.00000000000000","   0.0000000000000000","    0.0000000000000000","","Y","",">140",168.0,1.0,141.0,null,"DAYS",5033.0],["CDISCPILOT01","701","701","01-701-1047","2013-02-12","2013-03-09","Placebo",0,85.0,">80",3,"WHITE",1,"F","Y","Y","N","Week 8",8.0,"AMBUL ECG REMOVAL","  6",46.0,"2013-03-29","Delayed Word Recall","ACITM03",3.0," 10.00000000000000"," 10.00000000000000","   0.0000000000000000","    0.0000000000000000","","Y","","2-84",56.0,10.0,2.0,84.0,"DAYS",5018.0],["CDISCPILOT01","701","701","01-701-1047","2013-02-12","2013-03-09","Placebo",0,85.0,">80",3,"WHITE",1,"F","Y","Y","N","Baseline",0.0,"BASELINE","  3",1.0,"2013-02-12","Commands","ACITM04",4.0,"  0.00000000000000","  0.00000000000000","                   NA","                    NA","Y","Y","","<=1",1.0,0.0,null,1.0,"DAYS",5004.0],["CDISCPILOT01","701","701","01-701-1047","2013-02-12","2013-03-09","Placebo",0,85.0,">80",3,"WHITE",1,"F","Y","Y","N","Week 24",24.0,"RETRIEVAL","201",167.0,"2013-07-28","Commands","ACITM04",4.0,"  0.00000000000000","  0.00000000000000","   0.0000000000000000","                    NA","","Y","",">140",168.0,1.0,141.0,null,"DAYS",5034.0],["CDISCPILOT01","701","701","01-701-1047","2013-02-12","2013-03-09","Placebo",0,85.0,">80",3,"WHITE",1,"F","Y","Y","N","Week 8",8.0,"AMBUL ECG REMOVAL","  6",46.0,"2013-03-29","Commands","ACITM04",4.0,"  0.00000000000000","  0.00000000000000","   0.0000000000000000","                    NA","","Y","","2-84",56.0,10.0,2.0,84.0,"DAYS",5019.0],["CDISCPILOT01","701","701","01-701-1047","2013-02-12","2013-03-09","Placebo",0,85.0,">80",3,"WHITE",1,"F","Y","Y","N","Baseline",0.0,"BASELINE","  3",1.0,"2013-02-12","Constructional Praxis","ACITM05",5.0,"  1.00000000000000","  1.00000000000000","                   NA","                    NA","Y","Y","","<=1",1.0,0.0,null,1.0,"DAYS",5005.0],["CDISCPILOT01","701","701","01-701-1047","2013-02-12","2013-03-09","Placebo",0,85.0,">80",3,"WHITE",1,"F","Y","Y","N","Week 24",24.0,"RETRIEVAL","201",167.0,"2013-07-28","Constructional Praxis","ACITM05",5.0,"  1.00000000000000","  1.00000000000000","   0.0000000000000000","    0.0000000000000000","","Y","",">140",168.0,1.0,141.0,null,"DAYS",5035.0],["CDISCPILOT01","701","701","01-701-1047","2013-02-12","2013-03-09","Placebo",0,85.0,">80",3,"WHITE",1,"F","Y","Y","N","Week 8",8.0,"AMBUL ECG REMOVAL","  6",46.0,"2013-03-29","Constructional Praxis","ACITM05",5.0,"  0.00000000000000","  1.00000000000000","  -1.0000000000000000"," -100.0000000000000000","","Y","","2-84",56.0,10.0,2.0,84.0,"DAYS",5020.0],["CDISCPILOT01","701","701","01-701-1047","2013-02-12","2013-03-09","Placebo",0,85.0,">80",3,"WHITE",1,"F","Y","Y","N","Baseline",0.0,"BASELINE","  3",1.0,"2013-02-12","Ideational Praxis","ACITM06",6.0,"  0.00000000000000","  0.00000000000000","                   NA","                    NA","Y","Y","","<=1",1.0,0.0,null,1.0,"DAYS",5006.0],["CDISCPILOT01","701","701","01-701-1047","2013-02-12","2013-03-09","Placebo",0,85.0,">80",3,"WHITE",1,"F","Y","Y","N","Week 24",24.0,"RETRIEVAL","201",167.0,"2013-07-28","Ideational Praxis","ACITM06",6.0,"  0.00000000000000","  0.00000000000000","   0.0000000000000000","                    NA","","Y","",">140",168.0,1.0,141.0,null,"DAYS",5036.0],["CDISCPILOT01","701","701","01-701-1047","2013-02-12","2013-03-09","Placebo",0,85.0,">80",3,"WHITE",1,"F","Y","Y","N","Week 8",8.0,"AMBUL ECG REMOVAL","  6",46.0,"2013-03-29","Ideational Praxis","ACITM06",6.0,"  1.00000000000000","  0.00000000000000","   1.0000000000000000","                    NA","","Y","","2-84",56.0,10.0,2.0,84.0,"DAYS",5021.0],["CDISCPILOT01","701","701","01-701-1047","2013-02-12","2013-03-09","Placebo",0,85.0,">80",3,"WHITE",1,"F","Y","Y","N","Baseline",0.0,"BASELINE","  3",1.0,"2013-02-12","Orientation","ACITM07",7.0,"  0.00000000000000","  0.00000000000000","                   NA","                    NA","Y","Y","","<=1",1.0,0.0,null,1.0,"DAYS",5007.0],["CDISCPILOT01","701","701","01-701-1047","2013-02-12","2013-03-09","Placebo",0,85.0,">80",3,"WHITE",1,"F","Y","Y","N","Week 24",24.0,"RETRIEVAL","201",167.0,"2013-07-28","Orientation","ACITM07",7.0,"  2.00000000000000","  0.00000000000000","   2.0000000000000000","                    NA","","Y","",">140",168.0,1.0,141.0,null,"DAYS",5037.0],["CDISCPILOT01","701","701","01-701-1047","2013-02-12","2013-03-09","Placebo",0,85.0,">80",3,"WHITE",1,"F","Y","Y","N","Week 8",8.0,"AMBUL ECG REMOVAL","  6",46.0,"2013-03-29","Orientation","ACITM07",7.0,"  1.00000000000000","  0.00000000000000","   1.0000000000000000","                    NA","","Y","","2-84",56.0,10.0,2.0,84.0,"DAYS",5022.0],["CDISCPILOT01","701","701","01-701-1047","2013-02-12","2013-03-09","Placebo",0,85.0,">80",3,"WHITE",1,"F","Y","Y","N","Baseline",0.0,"BASELINE","  3",1.0,"2013-02-12","Word Recognition","ACITM08",8.0,"  3.00000000000000","  3.00000000000000","                   NA","                    NA","Y","Y","","<=1",1.0,0.0,null,1.0,"DAYS",5008.0],["CDISCPILOT01","701","701","01-701-1047","2013-02-12","2013-03-09","Placebo",0,85.0,">80",3,"WHITE",1,"F","Y","Y","N","Week 24",24.0,"RETRIEVAL","201",167.0,"2013-07-28","Word Recognition","ACITM08",8.0,"  3.00000000000000","  3.00000000000000","   0.0000000000000000","    0.0000000000000000","","Y","",">140",168.0,1.0,141.0,null,"DAYS",5038.0],["CDISCPILOT01","701","701","01-701-1047","2013-02-12","2013-03-09","Placebo",0,85.0,">80",3,"WHITE",1,"F","Y","Y","N","Week 8",8.0,"AMBUL ECG REMOVAL","  6",46.0,"2013-03-29","Word Recognition","ACITM08",8.0,"  5.00000000000000","  3.00000000000000","   2.0000000000000000","   66.6666666666666572","","Y","","2-84",56.0,10.0,2.0,84.0,"DAYS",5023.0],["CDISCPILOT01","701","701","01-701-1047","2013-02-12","2013-03-09","Placebo",0,85.0,">80",3,"WHITE",1,"F","Y","Y","N","Baseline",0.0,"BASELINE","  3",1.0,"2013-02-12","Attention/Visual Search Task","ACITM09",9.0," 26.00000000000000"," 26.00000000000000","                   NA","                    NA","Y","Y","","<=1",1.0,0.0,null,1.0,"DAYS",5009.0],["CDISCPILOT01","701","701","01-701-1047","2013-02-12","2013-03-09","Placebo",0,85.0,">80",3,"WHITE",1,"F","Y","Y","N","Week 24",24.0,"RETRIEVAL","201",167.0,"2013-07-28","Attention/Visual Search Task","ACITM09",9.0," 33.00000000000000"," 26.00000000000000","   7.0000000000000000","   26.9230769230769234","","Y","",">140",168.0,1.0,141.0,null,"DAYS",5039.0],["CDISCPILOT01","701","701","01-701-1047","2013-02-12","2013-03-09","Placebo",0,85.0,">80",3,"WHITE",1,"F","Y","Y","N","Week 8",8.0,"AMBUL ECG REMOVAL","  6",46.0,"2013-03-29","Attention/Visual Search Task","ACITM09",9.0," 37.00000000000000"," 26.00000000000000","  11.0000000000000000","   42.3076923076923066","","Y","","2-84",56.0,10.0,2.0,84.0,"DAYS",5024.0],["CDISCPILOT01","701","701","01-701-1047","2013-02-12","2013-03-09","Placebo",0,85.0,">80",3,"WHITE",1,"F","Y","Y","N","Baseline",0.0,"BASELINE","  3",1.0,"2013-02-12","Maze Solution","ACITM10",10.0,"  7.00000000000000","  7.00000000000000","                   NA","                    NA","Y","Y","","<=1",1.0,0.0,null,1.0,"DAYS",5010.0],["CDISCPILOT01","701","701","01-701-1047","2013-02-12","2013-03-09","Placebo",0,85.0,">80",3,"WHITE",1,"F","Y","Y","N","Week 24",24.0,"RETRIEVAL","201",167.0,"2013-07-28","Maze Solution","ACITM10",10.0,"  5.00000000000000","  7.00000000000000","  -2.0000000000000000","  -28.5714285714285694","","Y","",">140",168.0,1.0,141.0,null,"DAYS",5040.0],["CDISCPILOT01","701","701","01-701-1047","2013-02-12","2013-03-09","Placebo",0,85.0,">80",3,"WHITE",1,"F","Y","Y","N","Week 8",8.0,"AMBUL ECG REMOVAL","  6",46.0,"2013-03-29","Maze Solution","ACITM10",10.0,"  5.00000000000000","  7.00000000000000","  -2.0000000000000000","  -28.5714285714285694","","Y","","2-84",56.0,10.0,2.0,84.0,"DAYS",5025.0],["CDISCPILOT01","701","701","01-701-1047","2013-02-12","2013-03-09","Placebo",0,85.0,">80",3,"WHITE",1,"F","Y","Y","N","Baseline",0.0,"BASELINE","  3",1.0,"2013-02-12","Spoken Language Ability","ACITM11",11.0,"  0.00000000000000","  0.00000000000000","                   NA","                    NA","Y","Y","","<=1",1.0,0.0,null,1.0,"DAYS",5011.0],["CDISCPILOT01","701","701","01-701-1047","2013-02-12","2013-03-09","Placebo",0,85.0,">80",3,"WHITE",1,"F","Y","Y","N","Week 24",24.0,"RETRIEVAL","201",167.0,"2013-07-28","Spoken Language Ability","ACITM11",11.0,"  1.00000000000000","  0.00000000000000","   1.0000000000000000","                    NA","","Y","",">140",168.0,1.0,141.0,null,"DAYS",5041.0],["CDISCPILOT01","701","701","01-701-1047","2013-02-12","2013-03-09","Placebo",0,85.0,">80",3,"WHITE",1,"F","Y","Y","N","Week 8",8.0,"AMBUL ECG REMOVAL","  6",46.0,"2013-03-29","Spoken Language Ability","ACITM11",11.0,"  0.00000000000000","  0.00000000000000","   0.0000000000000000","                    NA","","Y","","2-84",56.0,10.0,2.0,84.0,"DAYS",5026.0],["CDISCPILOT01","701","701","01-701-1047","2013-02-12","2013-03-09","Placebo",0,85.0,">80",3,"WHITE",1,"F","Y","Y","N","Baseline",0.0,"BASELINE","  3",1.0,"2013-02-12","Comprehension Of Spoken Language","ACITM12",12.0,"  0.00000000000000","  0.00000000000000","                   NA","                    NA","Y","Y","","<=1",1.0,0.0,null,1.0,"DAYS",5012.0],["CDISCPILOT01","701","701","01-701-1047","2013-02-12","2013-03-09","Placebo",0,85.0,">80",3,"WHITE",1,"F","Y","Y","N","Week 24",24.0,"RETRIEVAL","201",167.0,"2013-07-28","Comprehension Of Spoken Language","ACITM12",12.0,"  2.00000000000000","  0.00000000000000","   2.0000000000000000","                    NA","","Y","",">140",168.0,1.0,141.0,null,"DAYS",5042.0],["CDISCPILOT01","701","701","01-701-1047","2013-02-12","2013-03-09","Placebo",0,85.0,">80",3,"WHITE",1,"F","Y","Y","N","Week 8",8.0,"AMBUL ECG REMOVAL","  6",46.0,"2013-03-29","Comprehension Of Spoken Language","ACITM12",12.0,"  0.00000000000000","  0.00000000000000","   0.0000000000000000","                    NA","","Y","","2-84",56.0,10.0,2.0,84.0,"DAYS",5027.0],["CDISCPILOT01","701","701","01-701-1047","2013-02-12","2013-03-09","Placebo",0,85.0,">80",3,"WHITE",1,"F","Y","Y","N","Baseline",0.0,"BASELINE","  3",1.0,"2013-02-12","Word Finding Difficulty In Spontaneous S","ACITM13",13.0,"  0.00000000000000","  0.00000000000000","                   NA","                    NA","Y","Y","","<=1",1.0,0.0,null,1.0,"DAYS",5013.0],["CDISCPILOT01","701","701","01-701-1047","2013-02-12","2013-03-09","Placebo",0,85.0,">80",3,"WHITE",1,"F","Y","Y","N","Week 24",24.0,"RETRIEVAL","201",167.0,"2013-07-28","Word Finding Difficulty In Spontaneous S","ACITM13",13.0,"  1.00000000000000","  0.00000000000000","   1.0000000000000000","                    NA","","Y","",">140",168.0,1.0,141.0,null,"DAYS",5043.0],["CDISCPILOT01","701","701","01-701-1047","2013-02-12","2013-03-09","Placebo",0,85.0,">80",3,"WHITE",1,"F","Y","Y","N","Week 8",8.0,"AMBUL ECG REMOVAL","  6",46.0,"2013-03-29","Word Finding Difficulty In Spontaneous S","ACITM13",13.0,"  0.00000000000000","  0.00000000000000","   0.0000000000000000","                    NA","","Y","","2-84",56.0,10.0,2.0,84.0,"DAYS",5028.0],["CDISCPILOT01","701","701","01-701-1047","2013-02-12","2013-03-09","Placebo",0,85.0,">80",3,"WHITE",1,"F","Y","Y","N","Baseline",0.0,"BASELINE","  3",1.0,"2013-02-12","Recall Of Test Instructions","ACITM14",14.0,"  0.00000000000000","  0.00000000000000","                   NA","                    NA","Y","Y","","<=1",1.0,0.0,null,1.0,"DAYS",5014.0],["CDISCPILOT01","701","701","01-701-1047","2013-02-12","2013-03-09","Placebo",0,85.0,">80",3,"WHITE",1,"F","Y","Y","N","Week 24",24.0,"RETRIEVAL","201",167.0,"2013-07-28","Recall Of Test Instructions","ACITM14",14.0,"  2.00000000000000","  0.00000000000000","   2.0000000000000000","                    NA","","Y","",">140",168.0,1.0,141.0,null,"DAYS",5044.0],["CDISCPILOT01","701","701","01-701-1047","2013-02-12","2013-03-09","Placebo",0,85.0,">80",3,"WHITE",1,"F","Y","Y","N","Week 8",8.0,"AMBUL ECG REMOVAL","  6",46.0,"2013-03-29","Recall Of Test Instructions","ACITM14",14.0,"  0.00000000000000","  0.00000000000000","   0.0000000000000000","                    NA","","Y","","2-84",56.0,10.0,2.0,84.0,"DAYS",5029.0],["CDISCPILOT01","701","701","01-701-1047","2013-02-12","2013-03-09","Placebo",0,85.0,">80",3,"WHITE",1,"F","Y","Y","N","Baseline",0.0,"BASELINE","  3",1.0,"2013-02-12","Adas-Cog(11) Subscore","ACTOT",15.0," 10.00000000000000"," 10.00000000000000","                   NA","                    NA","Y","Y","","<=1",1.0,0.0,null,1.0,"DAYS",5015.0],["CDISCPILOT01","701","701","01-701-1047","2013-02-12","2013-03-09","Placebo",0,85.0,">80",3,"WHITE",1,"F","Y","Y","N","Week 16",16.0,"AMBUL ECG REMOVAL","  6",46.0,"2013-03-29","Adas-Cog(11) Subscore","ACTOT",15.0," 14.00000000000000"," 10.00000000000000","   4.0000000000000000","   40.0000000000000000","","Y","LOCF","85-140",112.0,66.0,85.0,140.0,"DAYS",5030.0],["CDISCPILOT01","701","701","01-701-1047","2013-02-12","2013-03-09","Placebo",0,85.0,">80",3,"WHITE",1,"F","Y","Y","N","Week 24",24.0,"RETRIEVAL","201",167.0,"2013-07-28","Adas-Cog(11) Subscore","ACTOT",15.0," 19.00000000000000"," 10.00000000000000","   9.0000000000000000","   90.0000000000000000","","Y","",">140",168.0,1.0,141.0,null,"DAYS",5045.0],["CDISCPILOT01","701","701","01-701-1047","2013-02-12","2013-03-09","Placebo",0,85.0,">80",3,"WHITE",1,"F","Y","Y","N","Week 8",8.0,"AMBUL ECG REMOVAL","  6",46.0,"2013-03-29","Adas-Cog(11) Subscore","ACTOT",15.0," 14.00000000000000"," 10.00000000000000","   4.0000000000000000","   40.0000000000000000","","Y","","2-84",56.0,10.0,2.0,84.0,"DAYS",5030.0],["CDISCPILOT01","701","701","01-701-1097","2014-01-01","2014-07-09","Xanomeline Low Dose",54,68.0,"65-80",2,"WHITE",1,"M","Y","Y","Y","Baseline",0.0,"BASELINE","  3",1.0,"2014-01-01","Word Recall Task","ACITM01",1.0," 10.00000000000000"," 10.00000000000000","                   NA","                    NA","Y","Y","","<=1",1.0,0.0,null,1.0,"DAYS",5001.0],["CDISCPILOT01","701","701","01-701-1097","2014-01-01","2014-07-09","Xanomeline Low Dose",54,68.0,"65-80",2,"WHITE",1,"M","Y","Y","Y","Week 16",16.0,"WEEK 16"," 10",113.0,"2014-04-23","Word Recall Task","ACITM01",1.0,"  9.00000000000000"," 10.00000000000000","  -1.0000000000000000","  -10.0000000000000000","","Y","","85-140",112.0,1.0,85.0,140.0,"DAYS",5031.0],["CDISCPILOT01","701","701","01-701-1097","2014-01-01","2014-07-09","Xanomeline Low Dose",54,68.0,"65-80",2,"WHITE",1,"M","Y","Y","Y","Week 24",24.0,"WEEK 24"," 12",169.0,"2014-06-18","Word Recall Task","ACITM01",1.0,"  9.00000000000000"," 10.00000000000000","  -1.0000000000000000","  -10.0000000000000000","","Y","",">140",168.0,1.0,141.0,null,"DAYS",5046.0],["CDISCPILOT01","701","701","01-701-1097","2014-01-01","2014-07-09","Xanomeline Low Dose",54,68.0,"65-80",2,"WHITE",1,"M","Y","Y","Y","Week 8",8.0,"WEEK 8","  8",57.0,"2014-02-26","Word Recall Task","ACITM01",1.0,"  9.00000000000000"," 10.00000000000000","  -1.0000000000000000","  -10.0000000000000000","","Y","","2-84",56.0,1.0,2.0,84.0,"DAYS",5016.0],["CDISCPILOT01","701","701","01-701-1097","2014-01-01","2014-07-09","Xanomeline Low Dose",54,68.0,"65-80",2,"WHITE",1,"M","Y","Y","Y","Baseline",0.0,"BASELINE","  3",1.0,"2014-01-01","Naming Objects And Fingers (Refer To 5 C","ACITM02",2.0,"  5.00000000000000","  5.00000000000000","                   NA","                    NA","Y","Y","","<=1",1.0,0.0,null,1.0,"DAYS",5002.0],["CDISCPILOT01","701","701","01-701-1097","2014-01-01","2014-07-09","Xanomeline Low Dose",54,68.0,"65-80",2,"WHITE",1,"M","Y","Y","Y","Week 16",16.0,"WEEK 16"," 10",113.0,"2014-04-23","Naming Objects And Fingers (Refer To 5 C","ACITM02",2.0,"  5.00000000000000","  5.00000000000000","   0.0000000000000000","    0.0000000000000000","","Y","","85-140",112.0,1.0,85.0,140.0,"DAYS",5032.0],["CDISCPILOT01","701","701","01-701-1097","2014-01-01","2014-07-09","Xanomeline Low Dose",54,68.0,"65-80",2,"WHITE",1,"M","Y","Y","Y","Week 24",24.0,"WEEK 24"," 12",169.0,"2014-06-18","Naming Objects And Fingers (Refer To 5 C","ACITM02",2.0,"  5.00000000000000","  5.00000000000000","   0.0000000000000000","    0.0000000000000000","","Y","",">140",168.0,1.0,141.0,null,"DAYS",5047.0],["CDISCPILOT01","701","701","01-701-1097","2014-01-01","2014-07-09","Xanomeline Low Dose",54,68.0,"65-80",2,"WHITE",1,"M","Y","Y","Y","Week 8",8.0,"WEEK 8","  8",57.0,"2014-02-26","Naming Objects And Fingers (Refer To 5 C","ACITM02",2.0,"  5.00000000000000","  5.00000000000000","   0.0000000000000000","    0.0000000000000000","","Y","","2-84",56.0,1.0,2.0,84.0,"DAYS",5017.0],["CDISCPILOT01","701","701","01-701-1097","2014-01-01","2014-07-09","Xanomeline Low Dose",54,68.0,"65-80",2,"WHITE",1,"M","Y","Y","Y","Baseline",0.0,"BASELINE","  3",1.0,"2014-01-01","Delayed Word Recall","ACITM03",3.0," 10.00000000000000"," 10.00000000000000","                   NA","                    NA","Y","Y","","<=1",1.0,0.0,null,1.0,"DAYS",5003.0],["CDISCPILOT01","701","701","01-701-1097","2014-01-01","2014-07-09","Xanomeline Low Dose",54,68.0,"65-80",2,"WHITE",1,"M","Y","Y","Y","Week 16",16.0,"WEEK 16"," 10",113.0,"2014-04-23","Delayed Word Recall","ACITM03",3.0," 10.00000000000000"," 10.00000000000000","   0.0000000000000000","    0.0000000000000000","","Y","","85-140",112.0,1.0,85.0,140.0,"DAYS",5033.0],["CDISCPILOT01","701","701","01-701-1097","2014-01-01","2014-07-09","Xanomeline Low Dose",54,68.0,"65-80",2,"WHITE",1,"M","Y","Y","Y","Week 24",24.0,"WEEK 24"," 12",169.0,"2014-06-18","Delayed Word Recall","ACITM03",3.0," 10.00000000000000"," 10.00000000000000","   0.0000000000000000","    0.0000000000000000","","Y","",">140",168.0,1.0,141.0,null,"DAYS",5048.0],["CDISCPILOT01","701","701","01-701-1097","2014-01-01","2014-07-09","Xanomeline Low Dose",54,68.0,"65-80",2,"WHITE",1,"M","Y","Y","Y","Week 8",8.0,"WEEK 8","  8",57.0,"2014-02-26","Delayed Word Recall","ACITM03",3.0," 10.00000000000000"," 10.00000000000000","   0.0000000000000000","    0.0000000000000000","","Y","","2-84",56.0,1.0,2.0,84.0,"DAYS",5018.0],["CDISCPILOT01","701","701","01-701-1097","2014-01-01","2014-07-09","Xanomeline Low Dose",54,68.0,"65-80",2,"WHITE",1,"M","Y","Y","Y","Baseline",0.0,"BASELINE","  3",1.0,"2014-01-01","Commands","ACITM04",4.0,"  3.00000000000000","  3.00000000000000","                   NA","                    NA","Y","Y","","<=1",1.0,0.0,null,1.0,"DAYS",5004.0],["CDISCPILOT01","701","701","01-701-1097","2014-01-01","2014-07-09","Xanomeline Low Dose",54,68.0,"65-80",2,"WHITE",1,"M","Y","Y","Y","Week 16",16.0,"WEEK 16"," 10",113.0,"2014-04-23","Commands","ACITM04",4.0,"  1.00000000000000","  3.00000000000000","  -2.0000000000000000","  -66.6666666666666572","","Y","","85-140",112.0,1.0,85.0,140.0,"DAYS",5034.0],["CDISCPILOT01","701","701","01-701-1097","2014-01-01","2014-07-09","Xanomeline Low Dose",54,68.0,"65-80",2,"WHITE",1,"M","Y","Y","Y","Week 24",24.0,"WEEK 24"," 12",169.0,"2014-06-18","Commands","ACITM04",4.0,"  3.00000000000000","  3.00000000000000","   0.0000000000000000","    0.0000000000000000","","Y","",">140",168.0,1.0,141.0,null,"DAYS",5049.0],["CDISCPILOT01","701","701","01-701-1097","2014-01-01","2014-07-09","Xanomeline Low Dose",54,68.0,"65-80",2,"WHITE",1,"M","Y","Y","Y","Week 8",8.0,"WEEK 8","  8",57.0,"2014-02-26","Commands","ACITM04",4.0,"  1.00000000000000","  3.00000000000000","  -2.0000000000000000","  -66.6666666666666572","","Y","","2-84",56.0,1.0,2.0,84.0,"DAYS",5019.0],["CDISCPILOT01","701","701","01-701-1097","2014-01-01","2014-07-09","Xanomeline Low Dose",54,68.0,"65-80",2,"WHITE",1,"M","Y","Y","Y","Baseline",0.0,"BASELINE","  3",1.0,"2014-01-01","Constructional Praxis","ACITM05",5.0,"  4.00000000000000","  4.00000000000000","                   NA","                    NA","Y","Y","","<=1",1.0,0.0,null,1.0,"DAYS",5005.0],["CDISCPILOT01","701","701","01-701-1097","2014-01-01","2014-07-09","Xanomeline Low Dose",54,68.0,"65-80",2,"WHITE",1,"M","Y","Y","Y","Week 16",16.0,"WEEK 16"," 10",113.0,"2014-04-23","Constructional Praxis","ACITM05",5.0,"  4.00000000000000","  4.00000000000000","   0.0000000000000000","    0.0000000000000000","","Y","","85-140",112.0,1.0,85.0,140.0,"DAYS",5035.0],["CDISCPILOT01","701","701","01-701-1097","2014-01-01","2014-07-09","Xanomeline Low Dose",54,68.0,"65-80",2,"WHITE",1,"M","Y","Y","Y","Week 24",24.0,"WEEK 24"," 12",169.0,"2014-06-18","Constructional Praxis","ACITM05",5.0,"  2.00000000000000","  4.00000000000000","  -2.0000000000000000","  -50.0000000000000000","","Y","",">140",168.0,1.0,141.0,null,"DAYS",5050.0],["CDISCPILOT01","701","701","01-701-1097","2014-01-01","2014-07-09","Xanomeline Low Dose",54,68.0,"65-80",2,"WHITE",1,"M","Y","Y","Y","Week 8",8.0,"WEEK 8","  8",57.0,"2014-02-26","Constructional Praxis","ACITM05",5.0,"  3.00000000000000","  4.00000000000000","  -1.0000000000000000","  -25.0000000000000000","","Y","","2-84",56.0,1.0,2.0,84.0,"DAYS",5020.0],["CDISCPILOT01","701","701","01-701-1097","2014-01-01","2014-07-09","Xanomeline Low Dose",54,68.0,"65-80",2,"WHITE",1,"M","Y","Y","Y","Baseline",0.0,"BASELINE","  3",1.0,"2014-01-01","Ideational Praxis","ACITM06",6.0,"  5.00000000000000","  5.00000000000000","                   NA","                    NA","Y","Y","","<=1",1.0,0.0,null,1.0,"DAYS",5006.0],["CDISCPILOT01","701","701","01-701-1097","2014-01-01","2014-07-09","Xanomeline Low Dose",54,68.0,"65-80",2,"WHITE",1,"M","Y","Y","Y","Week 16",16.0,"WEEK 16"," 10",113.0,"2014-04-23","Ideational Praxis","ACITM06",6.0,"  4.00000000000000","  5.00000000000000","  -1.0000000000000000","  -20.0000000000000000","","Y","","85-140",112.0,1.0,85.0,140.0,"DAYS",5036.0],["CDISCPILOT01","701","701","01-701-1097","2014-01-01","2014-07-09","Xanomeline Low Dose",54,68.0,"65-80",2,"WHITE",1,"M","Y","Y","Y","Week 24",24.0,"WEEK 24"," 12",169.0,"2014-06-18","Ideational Praxis","ACITM06",6.0,"  5.00000000000000","  5.00000000000000","   0.0000000000000000","    0.0000000000000000","","Y","",">140",168.0,1.0,141.0,null,"DAYS",5051.0],["CDISCPILOT01","701","701","01-701-1097","2014-01-01","2014-07-09","Xanomeline Low Dose",54,68.0,"65-80",2,"WHITE",1,"M","Y","Y","Y","Week 8",8.0,"WEEK 8","  8",57.0,"2014-02-26","Ideational Praxis","ACITM06",6.0,"  4.00000000000000","  5.00000000000000","  -1.0000000000000000","  -20.0000000000000000","","Y","","2-84",56.0,1.0,2.0,84.0,"DAYS",5021.0],["CDISCPILOT01","701","701","01-701-1097","2014-01-01","2014-07-09","Xanomeline Low Dose",54,68.0,"65-80",2,"WHITE",1,"M","Y","Y","Y","Baseline",0.0,"BASELINE","  3",1.0,"2014-01-01","Orientation","ACITM07",7.0,"  7.00000000000000","  7.00000000000000","                   NA","                    NA","Y","Y","","<=1",1.0,0.0,null,1.0,"DAYS",5007.0],["CDISCPILOT01","701","701","01-701-1097","2014-01-01","2014-07-09","Xanomeline Low Dose",54,68.0,"65-80",2,"WHITE",1,"M","Y","Y","Y","Week 16",16.0,"WEEK 16"," 10",113.0,"2014-04-23","Orientation","ACITM07",7.0,"  7.00000000000000","  7.00000000000000","   0.0000000000000000","    0.0000000000000000","","Y","","85-140",112.0,1.0,85.0,140.0,"DAYS",5037.0],["CDISCPILOT01","701","701","01-701-1097","2014-01-01","2014-07-09","Xanomeline Low Dose",54,68.0,"65-80",2,"WHITE",1,"M","Y","Y","Y","Week 24",24.0,"WEEK 24"," 12",169.0,"2014-06-18","Orientation","ACITM07",7.0,"  7.00000000000000","  7.00000000000000","   0.0000000000000000","    0.0000000000000000","","Y","",">140",168.0,1.0,141.0,null,"DAYS",5052.0],["CDISCPILOT01","701","701","01-701-1097","2014-01-01","2014-07-09","Xanomeline Low Dose",54,68.0,"65-80",2,"WHITE",1,"M","Y","Y","Y","Week 8",8.0,"WEEK 8","  8",57.0,"2014-02-26","Orientation","ACITM07",7.0,"  7.00000000000000","  7.00000000000000","   0.0000000000000000","    0.0000000000000000","","Y","","2-84",56.0,1.0,2.0,84.0,"DAYS",5022.0],["CDISCPILOT01","701","701","01-701-1097","2014-01-01","2014-07-09","Xanomeline Low Dose",54,68.0,"65-80",2,"WHITE",1,"M","Y","Y","Y","Baseline",0.0,"BASELINE","  3",1.0,"2014-01-01","Word Recognition","ACITM08",8.0,"                NA","                NA","                   NA","                    NA","Y","Y","","<=1",1.0,0.0,null,1.0,"DAYS",5008.0],["CDISCPILOT01","701","701","01-701-1097","2014-01-01","2014-07-09","Xanomeline Low Dose",54,68.0,"65-80",2,"WHITE",1,"M","Y","Y","Y","Week 16",16.0,"WEEK 16"," 10",113.0,"2014-04-23","Word Recognition","ACITM08",8.0," 10.00000000000000","                NA","                   NA","                    NA","","Y","","85-140",112.0,1.0,85.0,140.0,"DAYS",5038.0],["CDISCPILOT01","701","701","01-701-1097","2014-01-01","2014-07-09","Xanomeline Low Dose",54,68.0,"65-80",2,"WHITE",1,"M","Y","Y","Y","Week 24",24.0,"WEEK 24"," 12",169.0,"2014-06-18","Word Recognition","ACITM08",8.0,"  9.00000000000000","                NA","                   NA","                    NA","","Y","",">140",168.0,1.0,141.0,null,"DAYS",5053.0],["CDISCPILOT01","701","701","01-701-1097","2014-01-01","2014-07-09","Xanomeline Low Dose",54,68.0,"65-80",2,"WHITE",1,"M","Y","Y","Y","Week 8",8.0,"WEEK 8","  8",57.0,"2014-02-26","Word Recognition","ACITM08",8.0," 12.00000000000000","                NA","                   NA","                    NA","","Y","","2-84",56.0,1.0,2.0,84.0,"DAYS",5023.0],["CDISCPILOT01","701","701","01-701-1097","2014-01-01","2014-07-09","Xanomeline Low Dose",54,68.0,"65-80",2,"WHITE",1,"M","Y","Y","Y","Baseline",0.0,"BASELINE","  3",1.0,"2014-01-01","Attention/Visual Search Task","ACITM09",9.0,"  0.00000000000000","  0.00000000000000","                   NA","                    NA","Y","Y","","<=1",1.0,0.0,null,1.0,"DAYS",5009.0],["CDISCPILOT01","701","701","01-701-1097","2014-01-01","2014-07-09","Xanomeline Low Dose",54,68.0,"65-80",2,"WHITE",1,"M","Y","Y","Y","Week 16",16.0,"WEEK 16"," 10",113.0,"2014-04-23","Attention/Visual Search Task","ACITM09",9.0,"  4.00000000000000","  0.00000000000000","   4.0000000000000000","                    NA","","Y","","85-140",112.0,1.0,85.0,140.0,"DAYS",5039.0],["CDISCPILOT01","701","701","01-701-1097","2014-01-01","2014-07-09","Xanomeline Low Dose",54,68.0,"65-80",2,"WHITE",1,"M","Y","Y","Y","Week 24",24.0,"WEEK 24"," 12",169.0,"2014-06-18","Attention/Visual Search Task","ACITM09",9.0,"  5.00000000000000","  0.00000000000000","   5.0000000000000000","                    NA","","Y","",">140",168.0,1.0,141.0,null,"DAYS",5054.0],["CDISCPILOT01","701","701","01-701-1097","2014-01-01","2014-07-09","Xanomeline Low Dose",54,68.0,"65-80",2,"WHITE",1,"M","Y","Y","Y","Week 8",8.0,"WEEK 8","  8",57.0,"2014-02-26","Attention/Visual Search Task","ACITM09",9.0,"  5.00000000000000","  0.00000000000000","   5.0000000000000000","                    NA","","Y","","2-84",56.0,1.0,2.0,84.0,"DAYS",5024.0],["CDISCPILOT01","701","701","01-701-1097","2014-01-01","2014-07-09","Xanomeline Low Dose",54,68.0,"65-80",2,"WHITE",1,"M","Y","Y","Y","Baseline",0.0,"BASELINE","  3",1.0,"2014-01-01","Maze Solution","ACITM10",10.0,"240.00000000000000","240.00000000000000","                   NA","                    NA","Y","Y","","<=1",1.0,0.0,null,1.0,"DAYS",5010.0],["CDISCPILOT01","701","701","01-701-1097","2014-01-01","2014-07-09","Xanomeline Low Dose",54,68.0,"65-80",2,"WHITE",1,"M","Y","Y","Y","Week 16",16.0,"WEEK 16"," 10",113.0,"2014-04-23","Maze Solution","ACITM10",10.0," 41.00000000000000","240.00000000000000","-199.0000000000000000","  -82.9166666666666714","","Y","","85-140",112.0,1.0,85.0,140.0,"DAYS",5040.0],["CDISCPILOT01","701","701","01-701-1097","2014-01-01","2014-07-09","Xanomeline Low Dose",54,68.0,"65-80",2,"WHITE",1,"M","Y","Y","Y","Week 24",24.0,"WEEK 24"," 12",169.0,"2014-06-18","Maze Solution","ACITM10",10.0," 11.00000000000000","240.00000000000000","-229.0000000000000000","  -95.4166666666666714","","Y","",">140",168.0,1.0,141.0,null,"DAYS",5055.0],["CDISCPILOT01","701","701","01-701-1097","2014-01-01","2014-07-09","Xanomeline Low Dose",54,68.0,"65-80",2,"WHITE",1,"M","Y","Y","Y","Week 8",8.0,"WEEK 8","  8",57.0,"2014-02-26","Maze Solution","ACITM10",10.0,"240.00000000000000","240.00000000000000","   0.0000000000000000","    0.0000000000000000","","Y","","2-84",56.0,1.0,2.0,84.0,"DAYS",5025.0],["CDISCPILOT01","701","701","01-701-1097","2014-01-01","2014-07-09","Xanomeline Low Dose",54,68.0,"65-80",2,"WHITE",1,"M","Y","Y","Y","Baseline",0.0,"BASELINE","  3",1.0,"2014-01-01","Spoken Language Ability","ACITM11",11.0,"  3.00000000000000","  3.00000000000000","                   NA","                    NA","Y","Y","","<=1",1.0,0.0,null,1.0,"DAYS",5011.0],["CDISCPILOT01","701","701","01-701-1097","2014-01-01","2014-07-09","Xanomeline Low Dose",54,68.0,"65-80",2,"WHITE",1,"M","Y","Y","Y","Week 16",16.0,"WEEK 16"," 10",113.0,"2014-04-23","Spoken Language Ability","ACITM11",11.0,"  3.00000000000000","  3.00000000000000","   0.0000000000000000","    0.0000000000000000","","Y","","85-140",112.0,1.0,85.0,140.0,"DAYS",5041.0],["CDISCPILOT01","701","701","01-701-1097","2014-01-01","2014-07-09","Xanomeline Low Dose",54,68.0,"65-80",2,"WHITE",1,"M","Y","Y","Y","Week 24",24.0,"WEEK 24"," 12",169.0,"2014-06-18","Spoken Language Ability","ACITM11",11.0,"  2.00000000000000","  3.00000000000000","  -1.0000000000000000","  -33.3333333333333286","","Y","",">140",168.0,1.0,141.0,null,"DAYS",5056.0],["CDISCPILOT01","701","701","01-701-1097","2014-01-01","2014-07-09","Xanomeline Low Dose",54,68.0,"65-80",2,"WHITE",1,"M","Y","Y","Y","Week 8",8.0,"WEEK 8","  8",57.0,"2014-02-26","Spoken Language Ability","ACITM11",11.0,"  3.00000000000000","  3.00000000000000","   0.0000000000000000","    0.0000000000000000","","Y","","2-84",56.0,1.0,2.0,84.0,"DAYS",5026.0],["CDISCPILOT01","701","701","01-701-1097","2014-01-01","2014-07-09","Xanomeline Low Dose",54,68.0,"65-80",2,"WHITE",1,"M","Y","Y","Y","Baseline",0.0,"BASELINE","  3",1.0,"2014-01-01","Comprehension Of Spoken Language","ACITM12",12.0,"  3.00000000000000","  3.00000000000000","                   NA","                    NA","Y","Y","","<=1",1.0,0.0,null,1.0,"DAYS",5012.0],["CDISCPILOT01","701","701","01-701-1097","2014-01-01","2014-07-09","Xanomeline Low Dose",54,68.0,"65-80",2,"WHITE",1,"M","Y","Y","Y","Week 16",16.0,"WEEK 16"," 10",113.0,"2014-04-23","Comprehension Of Spoken Language","ACITM12",12.0,"  2.00000000000000","  3.00000000000000","  -1.0000000000000000","  -33.3333333333333286","","Y","","85-140",112.0,1.0,85.0,140.0,"DAYS",5042.0],["CDISCPILOT01","701","701","01-701-1097","2014-01-01","2014-07-09","Xanomeline Low Dose",54,68.0,"65-80",2,"WHITE",1,"M","Y","Y","Y","Week 24",24.0,"WEEK 24"," 12",169.0,"2014-06-18","Comprehension Of Spoken Language","ACITM12",12.0,"  3.00000000000000","  3.00000000000000","   0.0000000000000000","    0.0000000000000000","","Y","",">140",168.0,1.0,141.0,null,"DAYS",5057.0],["CDISCPILOT01","701","701","01-701-1097","2014-01-01","2014-07-09","Xanomeline Low Dose",54,68.0,"65-80",2,"WHITE",1,"M","Y","Y","Y","Week 8",8.0,"WEEK 8","  8",57.0,"2014-02-26","Comprehension Of Spoken Language","ACITM12",12.0,"  2.00000000000000","  3.00000000000000","  -1.0000000000000000","  -33.3333333333333286","","Y","","2-84",56.0,1.0,2.0,84.0,"DAYS",5027.0],["CDISCPILOT01","701","701","01-701-1097","2014-01-01","2014-07-09","Xanomeline Low Dose",54,68.0,"65-80",2,"WHITE",1,"M","Y","Y","Y","Baseline",0.0,"BASELINE","  3",1.0,"2014-01-01","Word Finding Difficulty In Spontaneous S","ACITM13",13.0,"  4.00000000000000","  4.00000000000000","                   NA","                    NA","Y","Y","","<=1",1.0,0.0,null,1.0,"DAYS",5013.0],["CDISCPILOT01","701","701","01-701-1097","2014-01-01","2014-07-09","Xanomeline Low Dose",54,68.0,"65-80",2,"WHITE",1,"M","Y","Y","Y","Week 16",16.0,"WEEK 16"," 10",113.0,"2014-04-23","Word Finding Difficulty In Spontaneous S","ACITM13",13.0,"  2.00000000000000","  4.00000000000000","  -2.0000000000000000","  -50.0000000000000000","","Y","","85-140",112.0,1.0,85.0,140.0,"DAYS",5043.0],["CDISCPILOT01","701","701","01-701-1097","2014-01-01","2014-07-09","Xanomeline Low Dose",54,68.0,"65-80",2,"WHITE",1,"M","Y","Y","Y","Week 24",24.0,"WEEK 24"," 12",169.0,"2014-06-18","Word Finding Difficulty In Spontaneous S","ACITM13",13.0,"  2.00000000000000","  4.00000000000000","  -2.0000000000000000","  -50.0000000000000000","","Y","",">140",168.0,1.0,141.0,null,"DAYS",5058.0],["CDISCPILOT01","701","701","01-701-1097","2014-01-01","2014-07-09","Xanomeline Low Dose",54,68.0,"65-80",2,"WHITE",1,"M","Y","Y","Y","Week 8",8.0,"WEEK 8","  8",57.0,"2014-02-26","Word Finding Difficulty In Spontaneous S","ACITM13",13.0,"  4.00000000000000","  4.00000000000000","   0.0000000000000000","    0.0000000000000000","","Y","","2-84",56.0,1.0,2.0,84.0,"DAYS",5028.0],["CDISCPILOT01","701","701","01-701-1097","2014-01-01","2014-07-09","Xanomeline Low Dose",54,68.0,"65-80",2,"WHITE",1,"M","Y","Y","Y","Baseline",0.0,"BASELINE","  3",1.0,"2014-01-01","Recall Of Test Instructions","ACITM14",14.0,"  3.00000000000000","  3.00000000000000","                   NA","                    NA","Y","Y","","<=1",1.0,0.0,null,1.0,"DAYS",5014.0],["CDISCPILOT01","701","701","01-701-1097","2014-01-01","2014-07-09","Xanomeline Low Dose",54,68.0,"65-80",2,"WHITE",1,"M","Y","Y","Y","Week 16",16.0,"WEEK 16"," 10",113.0,"2014-04-23","Recall Of Test Instructions","ACITM14",14.0,"  2.00000000000000","  3.00000000000000","  -1.0000000000000000","  -33.3333333333333286","","Y","","85-140",112.0,1.0,85.0,140.0,"DAYS",5044.0],["CDISCPILOT01","701","701","01-701-1097","2014-01-01","2014-07-09","Xanomeline Low Dose",54,68.0,"65-80",2,"WHITE",1,"M","Y","Y","Y","Week 24",24.0,"WEEK 24"," 12",169.0,"2014-06-18","Recall Of Test Instructions","ACITM14",14.0,"  4.00000000000000","  3.00000000000000","   1.0000000000000000","   33.3333333333333286","","Y","",">140",168.0,1.0,141.0,null,"DAYS",5059.0],["CDISCPILOT01","701","701","01-701-1097","2014-01-01","2014-07-09","Xanomeline Low Dose",54,68.0,"65-80",2,"WHITE",1,"M","Y","Y","Y","Week 8",8.0,"WEEK 8","  8",57.0,"2014-02-26","Recall Of Test Instructions","ACITM14",14.0,"  4.00000000000000","  3.00000000000000","   1.0000000000000000","   33.3333333333333286","","Y","","2-84",56.0,1.0,2.0,84.0,"DAYS",5029.0],["CDISCPILOT01","701","701","01-701-1097","2014-01-01","2014-07-09","Xanomeline Low Dose",54,68.0,"65-80",2,"WHITE",1,"M","Y","Y","Y","Baseline",0.0,"BASELINE","  3",1.0,"2014-01-01","Adas-Cog(11) Subscore","ACTOT",15.0," 56.72413793103448"," 56.72413793103448","                   NA","                    NA","Y","Y","","<=1",1.0,0.0,null,1.0,"DAYS",5015.0],["CDISCPILOT01","701","701","01-701-1097","2014-01-01","2014-07-09","Xanomeline Low Dose",54,68.0,"65-80",2,"WHITE",1,"M","Y","Y","Y","Week 16",16.0,"WEEK 16"," 10",113.0,"2014-04-23","Adas-Cog(11) Subscore","ACTOT",15.0," 49.00000000000000"," 56.72413793103448","  -7.7241379310344769","  -13.6170212765957359","","Y","","85-140",112.0,1.0,85.0,140.0,"DAYS",5045.0],["CDISCPILOT01","701","701","01-701-1097","2014-01-01","2014-07-09","Xanomeline Low Dose",54,68.0,"65-80",2,"WHITE",1,"M","Y","Y","Y","Week 24",24.0,"WEEK 24"," 12",169.0,"2014-06-18","Adas-Cog(11) Subscore","ACTOT",15.0," 51.00000000000000"," 56.72413793103448","  -5.7241379310344769","  -10.0911854103343366","","Y","",">140",168.0,1.0,141.0,null,"DAYS",5060.0],["CDISCPILOT01","701","701","01-701-1097","2014-01-01","2014-07-09","Xanomeline Low Dose",54,68.0,"65-80",2,"WHITE",1,"M","Y","Y","Y","Week 8",8.0,"WEEK 8","  8",57.0,"2014-02-26","Adas-Cog(11) Subscore","ACTOT",15.0," 54.00000000000000"," 56.72413793103448","  -2.7241379310344769","   -4.8024316109422394","","Y","","2-84",56.0,1.0,2.0,84.0,"DAYS",5030.0],["CDISCPILOT01","701","701","01-701-1111","2012-09-07","2012-09-16","Xanomeline Low Dose",54,81.0,">80",3,"WHITE",1,"F","Y","Y","N","Baseline",0.0,"BASELINE","  3",1.0,"2012-09-07","Word Recall Task","ACITM01",1.0,"  5.00000000000000","  5.00000000000000","                   NA","                    NA","Y","Y","","<=1",1.0,0.0,null,1.0,"DAYS",5001.0],["CDISCPILOT01","701","701","01-701-1111","2012-09-07","2012-09-16","Xanomeline Low Dose",54,81.0,">80",3,"WHITE",1,"F","Y","Y","N","Week 24",24.0,"RETRIEVAL","201",169.0,"2013-02-22","Word Recall Task","ACITM01",1.0,"  5.00000000000000","  5.00000000000000","   0.0000000000000000","    0.0000000000000000","","Y","",">140",168.0,1.0,141.0,null,"DAYS",5031.0],["CDISCPILOT01","701","701","01-701-1111","2012-09-07","2012-09-16","Xanomeline Low Dose",54,81.0,">80",3,"WHITE",1,"F","Y","Y","N","Week 8",8.0,"WEEK 2","  4",11.0,"2012-09-17","Word Recall Task","ACITM01",1.0,"  4.00000000000000","  5.00000000000000","  -1.0000000000000000","  -20.0000000000000000","","Y","","2-84",56.0,45.0,2.0,84.0,"DAYS",5016.0],["CDISCPILOT01","701","701","01-701-1111","2012-09-07","2012-09-16","Xanomeline Low Dose",54,81.0,">80",3,"WHITE",1,"F","Y","Y","N","Baseline",0.0,"BASELINE","  3",1.0,"2012-09-07","Naming Objects And Fingers (Refer To 5 C","ACITM02",2.0,"  0.00000000000000","  0.00000000000000","                   NA","                    NA","Y","Y","","<=1",1.0,0.0,null,1.0,"DAYS",5002.0],["CDISCPILOT01","701","701","01-701-1111","2012-09-07","2012-09-16","Xanomeline Low Dose",54,81.0,">80",3,"WHITE",1,"F","Y","Y","N","Week 24",24.0,"RETRIEVAL","201",169.0,"2013-02-22","Naming Objects And Fingers (Refer To 5 C","ACITM02",2.0,"  0.00000000000000","  0.00000000000000","   0.0000000000000000","                    NA","","Y","",">140",168.0,1.0,141.0,null,"DAYS",5032.0],["CDISCPILOT01","701","701","01-701-1111","2012-09-07","2012-09-16","Xanomeline Low Dose",54,81.0,">80",3,"WHITE",1,"F","Y","Y","N","Week 8",8.0,"WEEK 2","  4",11.0,"2012-09-17","Naming Objects And Fingers (Refer To 5 C","ACITM02",2.0,"  0.00000000000000","  0.00000000000000","   0.0000000000000000","                    NA","","Y","","2-84",56.0,45.0,2.0,84.0,"DAYS",5017.0],["CDISCPILOT01","701","701","01-701-1111","2012-09-07","2012-09-16","Xanomeline Low Dose",54,81.0,">80",3,"WHITE",1,"F","Y","Y","N","Baseline",0.0,"BASELINE","  3",1.0,"2012-09-07","Delayed Word Recall","ACITM03",3.0,"  6.00000000000000","  6.00000000000000","                   NA","                    NA","Y","Y","","<=1",1.0,0.0,null,1.0,"DAYS",5003.0],["CDISCPILOT01","701","701","01-701-1111","2012-09-07","2012-09-16","Xanomeline Low Dose",54,81.0,">80",3,"WHITE",1,"F","Y","Y","N","Week 24",24.0,"RETRIEVAL","201",169.0,"2013-02-22","Delayed Word Recall","ACITM03",3.0,"  5.00000000000000","  6.00000000000000","  -1.0000000000000000","  -16.6666666666666643","","Y","",">140",168.0,1.0,141.0,null,"DAYS",5033.0],["CDISCPILOT01","701","701","01-701-1111","2012-09-07","2012-09-16","Xanomeline Low Dose",54,81.0,">80",3,"WHITE",1,"F","Y","Y","N","Week 8",8.0,"WEEK 2","  4",11.0,"2012-09-17","Delayed Word Recall","ACITM03",3.0,"  4.00000000000000","  6.00000000000000","  -2.0000000000000000","  -33.3333333333333286","","Y","","2-84",56.0,45.0,2.0,84.0,"DAYS",5018.0],["CDISCPILOT01","701","701","01-701-1111","2012-09-07","2012-09-16","Xanomeline Low Dose",54,81.0,">80",3,"WHITE",1,"F","Y","Y","N","Baseline",0.0,"BASELINE","  3",1.0,"2012-09-07","Commands","ACITM04",4.0,"  0.00000000000000","  0.00000000000000","                   NA","                    NA","Y","Y","","<=1",1.0,0.0,null,1.0,"DAYS",5004.0],["CDISCPILOT01","701","701","01-701-1111","2012-09-07","2012-09-16","Xanomeline Low Dose",54,81.0,">80",3,"WHITE",1,"F","Y","Y","N","Week 24",24.0,"RETRIEVAL","201",169.0,"2013-02-22","Commands","ACITM04",4.0,"  0.00000000000000","  0.00000000000000","   0.0000000000000000","                    NA","","Y","",">140",168.0,1.0,141.0,null,"DAYS",5034.0],["CDISCPILOT01","701","701","01-701-1111","2012-09-07","2012-09-16","Xanomeline Low Dose",54,81.0,">80",3,"WHITE",1,"F","Y","Y","N","Week 8",8.0,"WEEK 2","  4",11.0,"2012-09-17","Commands","ACITM04",4.0,"  0.00000000000000","  0.00000000000000","   0.0000000000000000","                    NA","","Y","","2-84",56.0,45.0,2.0,84.0,"DAYS",5019.0],["CDISCPILOT01","701","701","01-701-1111","2012-09-07","2012-09-16","Xanomeline Low Dose",54,81.0,">80",3,"WHITE",1,"F","Y","Y","N","Baseline",0.0,"BASELINE","  3",1.0,"2012-09-07","Constructional Praxis","ACITM05",5.0,"  0.00000000000000","  0.00000000000000","                   NA","                    NA","Y","Y","","<=1",1.0,0.0,null,1.0,"DAYS",5005.0],["CDISCPILOT01","701","701","01-701-1111","2012-09-07","2012-09-16","Xanomeline Low Dose",54,81.0,">80",3,"WHITE",1,"F","Y","Y","N","Week 24",24.0,"RETRIEVAL","201",169.0,"2013-02-22","Constructional Praxis","ACITM05",5.0,"  0.00000000000000","  0.00000000000000","   0.0000000000000000","                    NA","","Y","",">140",168.0,1.0,141.0,null,"DAYS",5035.0],["CDISCPILOT01","701","701","01-701-1111","2012-09-07","2012-09-16","Xanomeline Low Dose",54,81.0,">80",3,"WHITE",1,"F","Y","Y","N","Week 8",8.0,"WEEK 2","  4",11.0,"2012-09-17","Constructional Praxis","ACITM05",5.0,"  0.00000000000000","  0.00000000000000","   0.0000000000000000","                    NA","","Y","","2-84",56.0,45.0,2.0,84.0,"DAYS",5020.0],["CDISCPILOT01","701","701","01-701-1111","2012-09-07","2012-09-16","Xanomeline Low Dose",54,81.0,">80",3,"WHITE",1,"F","Y","Y","N","Baseline",0.0,"BASELINE","  3",1.0,"2012-09-07","Ideational Praxis","ACITM06",6.0,"  1.00000000000000","  1.00000000000000","                   NA","                    NA","Y","Y","","<=1",1.0,0.0,null,1.0,"DAYS",5006.0],["CDISCPILOT01","701","701","01-701-1111","2012-09-07","2012-09-16","Xanomeline Low Dose",54,81.0,">80",3,"WHITE",1,"F","Y","Y","N","Week 24",24.0,"RETRIEVAL","201",169.0,"2013-02-22","Ideational Praxis","ACITM06",6.0,"  0.00000000000000","  1.00000000000000","  -1.0000000000000000"," -100.0000000000000000","","Y","",">140",168.0,1.0,141.0,null,"DAYS",5036.0],["CDISCPILOT01","701","701","01-701-1111","2012-09-07","2012-09-16","Xanomeline Low Dose",54,81.0,">80",3,"WHITE",1,"F","Y","Y","N","Week 8",8.0,"WEEK 2","  4",11.0,"2012-09-17","Ideational Praxis","ACITM06",6.0,"  0.00000000000000","  1.00000000000000","  -1.0000000000000000"," -100.0000000000000000","","Y","","2-84",56.0,45.0,2.0,84.0,"DAYS",5021.0],["CDISCPILOT01","701","701","01-701-1111","2012-09-07","2012-09-16","Xanomeline Low Dose",54,81.0,">80",3,"WHITE",1,"F","Y","Y","N","Baseline",0.0,"BASELINE","  3",1.0,"2012-09-07","Orientation","ACITM07",7.0,"  0.00000000000000","  0.00000000000000","                   NA","                    NA","Y","Y","","<=1",1.0,0.0,null,1.0,"DAYS",5007.0],["CDISCPILOT01","701","701","01-701-1111","2012-09-07","2012-09-16","Xanomeline Low Dose",54,81.0,">80",3,"WHITE",1,"F","Y","Y","N","Week 24",24.0,"RETRIEVAL","201",169.0,"2013-02-22","Orientation","ACITM07",7.0,"  1.00000000000000","  0.00000000000000","   1.0000000000000000","                    NA","","Y","",">140",168.0,1.0,141.0,null,"DAYS",5037.0],["CDISCPILOT01","701","701","01-701-1111","2012-09-07","2012-09-16","Xanomeline Low Dose",54,81.0,">80",3,"WHITE",1,"F","Y","Y","N","Week 8",8.0,"WEEK 2","  4",11.0,"2012-09-17","Orientation","ACITM07",7.0,"  0.00000000000000","  0.00000000000000","   0.0000000000000000","                    NA","","Y","","2-84",56.0,45.0,2.0,84.0,"DAYS",5022.0],["CDISCPILOT01","701","701","01-701-1111","2012-09-07","2012-09-16","Xanomeline Low Dose",54,81.0,">80",3,"WHITE",1,"F","Y","Y","N","Baseline",0.0,"BASELINE","  3",1.0,"2012-09-07","Word Recognition","ACITM08",8.0,"  1.00000000000000","  1.00000000000000","                   NA","                    NA","Y","Y","","<=1",1.0,0.0,null,1.0,"DAYS",5008.0],["CDISCPILOT01","701","701","01-701-1111","2012-09-07","2012-09-16","Xanomeline Low Dose",54,81.0,">80",3,"WHITE",1,"F","Y","Y","N","Week 24",24.0,"RETRIEVAL","201",169.0,"2013-02-22","Word Recognition","ACITM08",8.0,"  3.00000000000000","  1.00000000000000","   2.0000000000000000","  200.0000000000000000","","Y","",">140",168.0,1.0,141.0,null,"DAYS",5038.0],["CDISCPILOT01","701","701","01-701-1111","2012-09-07","2012-09-16","Xanomeline Low Dose",54,81.0,">80",3,"WHITE",1,"F","Y","Y","N","Week 8",8.0,"WEEK 2","  4",11.0,"2012-09-17","Word Recognition","ACITM08",8.0,"  1.00000000000000","  1.00000000000000","   0.0000000000000000","    0.0000000000000000","","Y","","2-84",56.0,45.0,2.0,84.0,"DAYS",5023.0],["CDISCPILOT01","701","701","01-701-1111","2012-09-07","2012-09-16","Xanomeline Low Dose",54,81.0,">80",3,"WHITE",1,"F","Y","Y","N","Baseline",0.0,"BASELINE","  3",1.0,"2012-09-07","Attention/Visual Search Task","ACITM09",9.0," 31.00000000000000"," 31.00000000000000","                   NA","                    NA","Y","Y","","<=1",1.0,0.0,null,1.0,"DAYS",5009.0],["CDISCPILOT01","701","701","01-701-1111","2012-09-07","2012-09-16","Xanomeline Low Dose",54,81.0,">80",3,"WHITE",1,"F","Y","Y","N","Week 24",24.0,"RETRIEVAL","201",169.0,"2013-02-22","Attention/Visual Search Task","ACITM09",9.0," 31.00000000000000"," 31.00000000000000","   0.0000000000000000","    0.0000000000000000","","Y","",">140",168.0,1.0,141.0,null,"DAYS",5039.0],["CDISCPILOT01","701","701","01-701-1111","2012-09-07","2012-09-16","Xanomeline Low Dose",54,81.0,">80",3,"WHITE",1,"F","Y","Y","N","Week 8",8.0,"WEEK 2","  4",11.0,"2012-09-17","Attention/Visual Search Task","ACITM09",9.0," 24.00000000000000"," 31.00000000000000","  -7.0000000000000000","  -22.5806451612903203","","Y","","2-84",56.0,45.0,2.0,84.0,"DAYS",5024.0],["CDISCPILOT01","701","701","01-701-1111","2012-09-07","2012-09-16","Xanomeline Low Dose",54,81.0,">80",3,"WHITE",1,"F","Y","Y","N","Baseline",0.0,"BASELINE","  3",1.0,"2012-09-07","Maze Solution","ACITM10",10.0,"  3.00000000000000","  3.00000000000000","                   NA","                    NA","Y","Y","","<=1",1.0,0.0,null,1.0,"DAYS",5010.0],["CDISCPILOT01","701","701","01-701-1111","2012-09-07","2012-09-16","Xanomeline Low Dose",54,81.0,">80",3,"WHITE",1,"F","Y","Y","N","Week 24",24.0,"RETRIEVAL","201",169.0,"2013-02-22","Maze Solution","ACITM10",10.0,"  7.00000000000000","  3.00000000000000","   4.0000000000000000","  133.3333333333333144","","Y","",">140",168.0,1.0,141.0,null,"DAYS",5040.0],["CDISCPILOT01","701","701","01-701-1111","2012-09-07","2012-09-16","Xanomeline Low Dose",54,81.0,">80",3,"WHITE",1,"F","Y","Y","N","Week 8",8.0,"WEEK 2","  4",11.0,"2012-09-17","Maze Solution","ACITM10",10.0,"  7.00000000000000","  3.00000000000000","   4.0000000000000000","  133.3333333333333144","","Y","","2-84",56.0,45.0,2.0,84.0,"DAYS",5025.0],["CDISCPILOT01","701","701","01-701-1111","2012-09-07","2012-09-16","Xanomeline Low Dose",54,81.0,">80",3,"WHITE",1,"F","Y","Y","N","Baseline",0.0,"BASELINE","  3",1.0,"2012-09-07","Spoken Language Ability","ACITM11",11.0,"  0.00000000000000","  0.00000000000000","                   NA","                    NA","Y","Y","","<=1",1.0,0.0,null,1.0,"DAYS",5011.0],["CDISCPILOT01","701","701","01-701-1111","2012-09-07","2012-09-16","Xanomeline Low Dose",54,81.0,">80",3,"WHITE",1,"F","Y","Y","N","Week 24",24.0,"RETRIEVAL","201",169.0,"2013-02-22","Spoken Language Ability","ACITM11",11.0,"  0.00000000000000","  0.00000000000000","   0.0000000000000000","                    NA","","Y","",">140",168.0,1.0,141.0,null,"DAYS",5041.0],["CDISCPILOT01","701","701","01-701-1111","2012-09-07","2012-09-16","Xanomeline Low Dose",54,81.0,">80",3,"WHITE",1,"F","Y","Y","N","Week 8",8.0,"WEEK 2","  4",11.0,"2012-09-17","Spoken Language Ability","ACITM11",11.0,"  0.00000000000000","  0.00000000000000","   0.0000000000000000","                    NA","","Y","","2-84",56.0,45.0,2.0,84.0,"DAYS",5026.0],["CDISCPILOT01","701","701","01-701-1111","2012-09-07","2012-09-16","Xanomeline Low Dose",54,81.0,">80",3,"WHITE",1,"F","Y","Y","N","Baseline",0.0,"BASELINE","  3",1.0,"2012-09-07","Comprehension Of Spoken Language","ACITM12",12.0,"  0.00000000000000","  0.00000000000000","                   NA","                    NA","Y","Y","","<=1",1.0,0.0,null,1.0,"DAYS",5012.0],["CDISCPILOT01","701","701","01-701-1111","2012-09-07","2012-09-16","Xanomeline Low Dose",54,81.0,">80",3,"WHITE",1,"F","Y","Y","N","Week 24",24.0,"RETRIEVAL","201",169.0,"2013-02-22","Comprehension Of Spoken Language","ACITM12",12.0,"  0.00000000000000","  0.00000000000000","   0.0000000000000000","                    NA","","Y","",">140",168.0,1.0,141.0,null,"DAYS",5042.0],["CDISCPILOT01","701","701","01-701-1111","2012-09-07","2012-09-16","Xanomeline Low Dose",54,81.0,">80",3,"WHITE",1,"F","Y","Y","N","Week 8",8.0,"WEEK 2","  4",11.0,"2012-09-17","Comprehension Of Spoken Language","ACITM12",12.0,"  0.00000000000000","  0.00000000000000","   0.0000000000000000","                    NA","","Y","","2-84",56.0,45.0,2.0,84.0,"DAYS",5027.0],["CDISCPILOT01","701","701","01-701-1111","2012-09-07","2012-09-16","Xanomeline Low Dose",54,81.0,">80",3,"WHITE",1,"F","Y","Y","N","Baseline",0.0,"BASELINE","  3",1.0,"2012-09-07","Word Finding Difficulty In Spontaneous S","ACITM13",13.0,"  0.00000000000000","  0.00000000000000","                   NA","                    NA","Y","Y","","<=1",1.0,0.0,null,1.0,"DAYS",5013.0],["CDISCPILOT01","701","701","01-701-1111","2012-09-07","2012-09-16","Xanomeline Low Dose",54,81.0,">80",3,"WHITE",1,"F","Y","Y","N","Week 24",24.0,"RETRIEVAL","201",169.0,"2013-02-22","Word Finding Difficulty In Spontaneous S","ACITM13",13.0,"  0.00000000000000","  0.00000000000000","   0.0000000000000000","                    NA","","Y","",">140",168.0,1.0,141.0,null,"DAYS",5043.0],["CDISCPILOT01","701","701","01-701-1111","2012-09-07","2012-09-16","Xanomeline Low Dose",54,81.0,">80",3,"WHITE",1,"F","Y","Y","N","Week 8",8.0,"WEEK 2","  4",11.0,"2012-09-17","Word Finding Difficulty In Spontaneous S","ACITM13",13.0,"  0.00000000000000","  0.00000000000000","   0.0000000000000000","                    NA","","Y","","2-84",56.0,45.0,2.0,84.0,"DAYS",5028.0],["CDISCPILOT01","701","701","01-701-1111","2012-09-07","2012-09-16","Xanomeline Low Dose",54,81.0,">80",3,"WHITE",1,"F","Y","Y","N","Baseline",0.0,"BASELINE","  3",1.0,"2012-09-07","Recall Of Test Instructions","ACITM14",14.0,"  0.00000000000000","  0.00000000000000","                   NA","                    NA","Y","Y","","<=1",1.0,0.0,null,1.0,"DAYS",5014.0],["CDISCPILOT01","701","701","01-701-1111","2012-09-07","2012-09-16","Xanomeline Low Dose",54,81.0,">80",3,"WHITE",1,"F","Y","Y","N","Week 24",24.0,"RETRIEVAL","201",169.0,"2013-02-22","Recall Of Test Instructions","ACITM14",14.0,"  0.00000000000000","  0.00000000000000","   0.0000000000000000","                    NA","","Y","",">140",168.0,1.0,141.0,null,"DAYS",5044.0],["CDISCPILOT01","701","701","01-701-1111","2012-09-07","2012-09-16","Xanomeline Low Dose",54,81.0,">80",3,"WHITE",1,"F","Y","Y","N","Week 8",8.0,"WEEK 2","  4",11.0,"2012-09-17","Recall Of Test Instructions","ACITM14",14.0,"  0.00000000000000","  0.00000000000000","   0.0000000000000000","                    NA","","Y","","2-84",56.0,45.0,2.0,84.0,"DAYS",5029.0],["CDISCPILOT01","701","701","01-701-1111","2012-09-07","2012-09-16","Xanomeline Low Dose",54,81.0,">80",3,"WHITE",1,"F","Y","Y","N","Baseline",0.0,"BASELINE","  3",1.0,"2012-09-07","Adas-Cog(11) Subscore","ACTOT",15.0,"  7.00000000000000","  7.00000000000000","                   NA","                    NA","Y","Y","","<=1",1.0,0.0,null,1.0,"DAYS",5015.0],["CDISCPILOT01","701","701","01-701-1111","2012-09-07","2012-09-16","Xanomeline Low Dose",54,81.0,">80",3,"WHITE",1,"F","Y","Y","N","Week 16",16.0,"WEEK 2","  4",11.0,"2012-09-17","Adas-Cog(11) Subscore","ACTOT",15.0,"  5.00000000000000","  7.00000000000000","  -2.0000000000000000","  -28.5714285714285694","","Y","LOCF","85-140",112.0,101.0,85.0,140.0,"DAYS",5030.0],["CDISCPILOT01","701","701","01-701-1111","2012-09-07","2012-09-16","Xanomeline Low Dose",54,81.0,">80",3,"WHITE",1,"F","Y","Y","N","Week 24",24.0,"RETRIEVAL","201",169.0,"2013-02-22","Adas-Cog(11) Subscore","ACTOT",15.0,"  9.00000000000000","  7.00000000000000","   2.0000000000000000","   28.5714285714285694","","Y","",">140",168.0,1.0,141.0,null,"DAYS",5045.0],["CDISCPILOT01","701","701","01-701-1111","2012-09-07","2012-09-16","Xanomeline Low Dose",54,81.0,">80",3,"WHITE",1,"F","Y","Y","N","Week 8",8.0,"WEEK 2","  4",11.0,"2012-09-17","Adas-Cog(11) Subscore","ACTOT",15.0,"  5.00000000000000","  7.00000000000000","  -2.0000000000000000","  -28.5714285714285694","","Y","","2-84",56.0,45.0,2.0,84.0,"DAYS",5030.0],["CDISCPILOT01","701","701","01-701-1115","2012-11-30","2013-01-23","Xanomeline Low Dose",54,84.0,">80",3,"WHITE",1,"M","Y","Y","N","Baseline",0.0,"BASELINE","  3",1.0,"2012-11-30","Word Recall Task","ACITM01",1.0,"  6.00000000000000","  6.00000000000000","                   NA","                    NA","Y","Y","","<=1",1.0,0.0,null,1.0,"DAYS",5001.0],["CDISCPILOT01","701","701","01-701-1115","2012-11-30","2013-01-23","Xanomeline Low Dose",54,84.0,">80",3,"WHITE",1,"M","Y","Y","N","Week 24",24.0,"RETRIEVAL","201",172.0,"2013-05-20","Word Recall Task","ACITM01",1.0,"  6.00000000000000","  6.00000000000000","   0.0000000000000000","    0.0000000000000000","","Y","",">140",168.0,4.0,141.0,null,"DAYS",5031.0],["CDISCPILOT01","701","701","01-701-1115","2012-11-30","2013-01-23","Xanomeline Low Dose",54,84.0,">80",3,"WHITE",1,"M","Y","Y","N","Week 8",8.0,"WEEK 8","  8",55.0,"2013-01-23","Word Recall Task","ACITM01",1.0,"  6.00000000000000","  6.00000000000000","   0.0000000000000000","    0.0000000000000000","","Y","","2-84",56.0,1.0,2.0,84.0,"DAYS",5016.0],["CDISCPILOT01","701","701","01-701-1115","2012-11-30","2013-01-23","Xanomeline Low Dose",54,84.0,">80",3,"WHITE",1,"M","Y","Y","N","Baseline",0.0,"BASELINE","  3",1.0,"2012-11-30","Naming Objects And Fingers (Refer To 5 C","ACITM02",2.0,"  0.00000000000000","  0.00000000000000","                   NA","                    NA","Y","Y","","<=1",1.0,0.0,null,1.0,"DAYS",5002.0],["CDISCPILOT01","701","701","01-701-1115","2012-11-30","2013-01-23","Xanomeline Low Dose",54,84.0,">80",3,"WHITE",1,"M","Y","Y","N","Week 24",24.0,"RETRIEVAL","201",172.0,"2013-05-20","Naming Objects And Fingers (Refer To 5 C","ACITM02",2.0,"  0.00000000000000","  0.00000000000000","   0.0000000000000000","                    NA","","Y","",">140",168.0,4.0,141.0,null,"DAYS",5032.0],["CDISCPILOT01","701","701","01-701-1115","2012-11-30","2013-01-23","Xanomeline Low Dose",54,84.0,">80",3,"WHITE",1,"M","Y","Y","N","Week 8",8.0,"WEEK 8","  8",55.0,"2013-01-23","Naming Objects And Fingers (Refer To 5 C","ACITM02",2.0,"  1.00000000000000","  0.00000000000000","   1.0000000000000000","                    NA","","Y","","2-84",56.0,1.0,2.0,84.0,"DAYS",5017.0],["CDISCPILOT01","701","701","01-701-1115","2012-11-30","2013-01-23","Xanomeline Low Dose",54,84.0,">80",3,"WHITE",1,"M","Y","Y","N","Baseline",0.0,"BASELINE","  3",1.0,"2012-11-30","Delayed Word Recall","ACITM03",3.0,"  6.00000000000000","  6.00000000000000","                   NA","                    NA","Y","Y","","<=1",1.0,0.0,null,1.0,"DAYS",5003.0],["CDISCPILOT01","701","701","01-701-1115","2012-11-30","2013-01-23","Xanomeline Low Dose",54,84.0,">80",3,"WHITE",1,"M","Y","Y","N","Week 24",24.0,"RETRIEVAL","201",172.0,"2013-05-20","Delayed Word Recall","ACITM03",3.0,"  7.00000000000000","  6.00000000000000","   1.0000000000000000","   16.6666666666666643","","Y","",">140",168.0,4.0,141.0,null,"DAYS",5033.0],["CDISCPILOT01","701","701","01-701-1115","2012-11-30","2013-01-23","Xanomeline Low Dose",54,84.0,">80",3,"WHITE",1,"M","Y","Y","N","Week 8",8.0,"WEEK 8","  8",55.0,"2013-01-23","Delayed Word Recall","ACITM03",3.0,"  6.00000000000000","  6.00000000000000","   0.0000000000000000","    0.0000000000000000","","Y","","2-84",56.0,1.0,2.0,84.0,"DAYS",5018.0],["CDISCPILOT01","701","701","01-701-1115","2012-11-30","2013-01-23","Xanomeline Low Dose",54,84.0,">80",3,"WHITE",1,"M","Y","Y","N","Baseline",0.0,"BASELINE","  3",1.0,"2012-11-30","Commands","ACITM04",4.0,"  0.00000000000000","  0.00000000000000","                   NA","                    NA","Y","Y","","<=1",1.0,0.0,null,1.0,"DAYS",5004.0],["CDISCPILOT01","701","701","01-701-1115","2012-11-30","2013-01-23","Xanomeline Low Dose",54,84.0,">80",3,"WHITE",1,"M","Y","Y","N","Week 24",24.0,"RETRIEVAL","201",172.0,"2013-05-20","Commands","ACITM04",4.0,"  0.00000000000000","  0.00000000000000","   0.0000000000000000","                    NA","","Y","",">140",168.0,4.0,141.0,null,"DAYS",5034.0],["CDISCPILOT01","701","701","01-701-1115","2012-11-30","2013-01-23","Xanomeline Low Dose",54,84.0,">80",3,"WHITE",1,"M","Y","Y","N","Week 8",8.0,"WEEK 8","  8",55.0,"2013-01-23","Commands","ACITM04",4.0,"  0.00000000000000","  0.00000000000000","   0.0000000000000000","                    NA","","Y","","2-84",56.0,1.0,2.0,84.0,"DAYS",5019.0],["CDISCPILOT01","701","701","01-701-1115","2012-11-30","2013-01-23","Xanomeline Low Dose",54,84.0,">80",3,"WHITE",1,"M","Y","Y","N","Baseline",0.0,"BASELINE","  3",1.0,"2012-11-30","Constructional Praxis","ACITM05",5.0,"  1.00000000000000","  1.00000000000000","                   NA","                    NA","Y","Y","","<=1",1.0,0.0,null,1.0,"DAYS",5005.0],["CDISCPILOT01","701","701","01-701-1115","2012-11-30","2013-01-23","Xanomeline Low Dose",54,84.0,">80",3,"WHITE",1,"M","Y","Y","N","Week 24",24.0,"RETRIEVAL","201",172.0,"2013-05-20","Constructional Praxis","ACITM05",5.0,"  1.00000000000000","  1.00000000000000","   0.0000000000000000","    0.0000000000000000","","Y","",">140",168.0,4.0,141.0,null,"DAYS",5035.0],["CDISCPILOT01","701","701","01-701-1115","2012-11-30","2013-01-23","Xanomeline Low Dose",54,84.0,">80",3,"WHITE",1,"M","Y","Y","N","Week 8",8.0,"WEEK 8","  8",55.0,"2013-01-23","Constructional Praxis","ACITM05",5.0,"  1.00000000000000","  1.00000000000000","   0.0000000000000000","    0.0000000000000000","","Y","","2-84",56.0,1.0,2.0,84.0,"DAYS",5020.0],["CDISCPILOT01","701","701","01-701-1115","2012-11-30","2013-01-23","Xanomeline Low Dose",54,84.0,">80",3,"WHITE",1,"M","Y","Y","N","Baseline",0.0,"BASELINE","  3",1.0,"2012-11-30","Ideational Praxis","ACITM06",6.0,"  1.00000000000000","  1.00000000000000","                   NA","                    NA","Y","Y","","<=1",1.0,0.0,null,1.0,"DAYS",5006.0],["CDISCPILOT01","701","701","01-701-1115","2012-11-30","2013-01-23","Xanomeline Low Dose",54,84.0,">80",3,"WHITE",1,"M","Y","Y","N","Week 24",24.0,"RETRIEVAL","201",172.0,"2013-05-20","Ideational Praxis","ACITM06",6.0,"  0.00000000000000","  1.00000000000000","  -1.0000000000000000"," -100.0000000000000000","","Y","",">140",168.0,4.0,141.0,null,"DAYS",5036.0],["CDISCPILOT01","701","701","01-701-1115","2012-11-30","2013-01-23","Xanomeline Low Dose",54,84.0,">80",3,"WHITE",1,"M","Y","Y","N","Week 8",8.0,"WEEK 8","  8",55.0,"2013-01-23","Ideational Praxis","ACITM06",6.0,"  0.00000000000000","  1.00000000000000","  -1.0000000000000000"," -100.0000000000000000","","Y","","2-84",56.0,1.0,2.0,84.0,"DAYS",5021.0],["CDISCPILOT01","701","701","01-701-1115","2012-11-30","2013-01-23","Xanomeline Low Dose",54,84.0,">80",3,"WHITE",1,"M","Y","Y","N","Baseline",0.0,"BASELINE","  3",1.0,"2012-11-30","Orientation","ACITM07",7.0,"  1.00000000000000","  1.00000000000000","                   NA","                    NA","Y","Y","","<=1",1.0,0.0,null,1.0,"DAYS",5007.0],["CDISCPILOT01","701","701","01-701-1115","2012-11-30","2013-01-23","Xanomeline Low Dose",54,84.0,">80",3,"WHITE",1,"M","Y","Y","N","Week 24",24.0,"RETRIEVAL","201",172.0,"2013-05-20","Orientation","ACITM07",7.0,"  2.00000000000000","  1.00000000000000","   1.0000000000000000","  100.0000000000000000","","Y","",">140",168.0,4.0,141.0,null,"DAYS",5037.0],["CDISCPILOT01","701","701","01-701-1115","2012-11-30","2013-01-23","Xanomeline Low Dose",54,84.0,">80",3,"WHITE",1,"M","Y","Y","N","Week 8",8.0,"WEEK 8","  8",55.0,"2013-01-23","Orientation","ACITM07",7.0,"  1.00000000000000","  1.00000000000000","   0.0000000000000000","    0.0000000000000000","","Y","","2-84",56.0,1.0,2.0,84.0,"DAYS",5022.0],["CDISCPILOT01","701","701","01-701-1115","2012-11-30","2013-01-23","Xanomeline Low Dose",54,84.0,">80",3,"WHITE",1,"M","Y","Y","N","Baseline",0.0,"BASELINE","  3",1.0,"2012-11-30","Word Recognition","ACITM08",8.0,"  1.00000000000000","  1.00000000000000","                   NA","                    NA","Y","Y","","<=1",1.0,0.0,null,1.0,"DAYS",5008.0],["CDISCPILOT01","701","701","01-701-1115","2012-11-30","2013-01-23","Xanomeline Low Dose",54,84.0,">80",3,"WHITE",1,"M","Y","Y","N","Week 24",24.0,"RETRIEVAL","201",172.0,"2013-05-20","Word Recognition","ACITM08",8.0,"  1.00000000000000","  1.00000000000000","   0.0000000000000000","    0.0000000000000000","","Y","",">140",168.0,4.0,141.0,null,"DAYS",5038.0],["CDISCPILOT01","701","701","01-701-1115","2012-11-30","2013-01-23","Xanomeline Low Dose",54,84.0,">80",3,"WHITE",1,"M","Y","Y","N","Week 8",8.0,"WEEK 8","  8",55.0,"2013-01-23","Word Recognition","ACITM08",8.0,"  5.00000000000000","  1.00000000000000","   4.0000000000000000","  400.0000000000000000","","Y","","2-84",56.0,1.0,2.0,84.0,"DAYS",5023.0],["CDISCPILOT01","701","701","01-701-1115","2012-11-30","2013-01-23","Xanomeline Low Dose",54,84.0,">80",3,"WHITE",1,"M","Y","Y","N","Baseline",0.0,"BASELINE","  3",1.0,"2012-11-30","Attention/Visual Search Task","ACITM09",9.0," 26.00000000000000"," 26.00000000000000","                   NA","                    NA","Y","Y","","<=1",1.0,0.0,null,1.0,"DAYS",5009.0],["CDISCPILOT01","701","701","01-701-1115","2012-11-30","2013-01-23","Xanomeline Low Dose",54,84.0,">80",3,"WHITE",1,"M","Y","Y","N","Week 24",24.0,"RETRIEVAL","201",172.0,"2013-05-20","Attention/Visual Search Task","ACITM09",9.0," 24.00000000000000"," 26.00000000000000","  -2.0000000000000000","   -7.6923076923076925","","Y","",">140",168.0,4.0,141.0,null,"DAYS",5039.0],["CDISCPILOT01","701","701","01-701-1115","2012-11-30","2013-01-23","Xanomeline Low Dose",54,84.0,">80",3,"WHITE",1,"M","Y","Y","N","Week 8",8.0,"WEEK 8","  8",55.0,"2013-01-23","Attention/Visual Search Task","ACITM09",9.0," 23.00000000000000"," 26.00000000000000","  -3.0000000000000000","  -11.5384615384615383","","Y","","2-84",56.0,1.0,2.0,84.0,"DAYS",5024.0],["CDISCPILOT01","701","701","01-701-1115","2012-11-30","2013-01-23","Xanomeline Low Dose",54,84.0,">80",3,"WHITE",1,"M","Y","Y","N","Baseline",0.0,"BASELINE","  3",1.0,"2012-11-30","Maze Solution","ACITM10",10.0,"  3.00000000000000","  3.00000000000000","                   NA","                    NA","Y","Y","","<=1",1.0,0.0,null,1.0,"DAYS",5010.0],["CDISCPILOT01","701","701","01-701-1115","2012-11-30","2013-01-23","Xanomeline Low Dose",54,84.0,">80",3,"WHITE",1,"M","Y","Y","N","Week 24",24.0,"RETRIEVAL","201",172.0,"2013-05-20","Maze Solution","ACITM10",10.0,"  7.00000000000000","  3.00000000000000","   4.0000000000000000","  133.3333333333333144","","Y","",">140",168.0,4.0,141.0,null,"DAYS",5040.0],["CDISCPILOT01","701","701","01-701-1115","2012-11-30","2013-01-23","Xanomeline Low Dose",54,84.0,">80",3,"WHITE",1,"M","Y","Y","N","Week 8",8.0,"WEEK 8","  8",55.0,"2013-01-23","Maze Solution","ACITM10",10.0,"  6.00000000000000","  3.00000000000000","   3.0000000000000000","  100.0000000000000000","","Y","","2-84",56.0,1.0,2.0,84.0,"DAYS",5025.0],["CDISCPILOT01","701","701","01-701-1115","2012-11-30","2013-01-23","Xanomeline Low Dose",54,84.0,">80",3,"WHITE",1,"M","Y","Y","N","Baseline",0.0,"BASELINE","  3",1.0,"2012-11-30","Spoken Language Ability","ACITM11",11.0,"  0.00000000000000","  0.00000000000000","                   NA","                    NA","Y","Y","","<=1",1.0,0.0,null,1.0,"DAYS",5011.0],["CDISCPILOT01","701","701","01-701-1115","2012-11-30","2013-01-23","Xanomeline Low Dose",54,84.0,">80",3,"WHITE",1,"M","Y","Y","N","Week 24",24.0,"RETRIEVAL","201",172.0,"2013-05-20","Spoken Language Ability","ACITM11",11.0,"  0.00000000000000","  0.00000000000000","   0.0000000000000000","                    NA","","Y","",">140",168.0,4.0,141.0,null,"DAYS",5041.0],["CDISCPILOT01","701","701","01-701-1115","2012-11-30","2013-01-23","Xanomeline Low Dose",54,84.0,">80",3,"WHITE",1,"M","Y","Y","N","Week 8",8.0,"WEEK 8","  8",55.0,"2013-01-23","Spoken Language Ability","ACITM11",11.0,"  0.00000000000000","  0.00000000000000","   0.0000000000000000","                    NA","","Y","","2-84",56.0,1.0,2.0,84.0,"DAYS",5026.0],["CDISCPILOT01","701","701","01-701-1115","2012-11-30","2013-01-23","Xanomeline Low Dose",54,84.0,">80",3,"WHITE",1,"M","Y","Y","N","Baseline",0.0,"BASELINE","  3",1.0,"2012-11-30","Comprehension Of Spoken Language","ACITM12",12.0,"  0.00000000000000","  0.00000000000000","                   NA","                    NA","Y","Y","","<=1",1.0,0.0,null,1.0,"DAYS",5012.0],["CDISCPILOT01","701","701","01-701-1115","2012-11-30","2013-01-23","Xanomeline Low Dose",54,84.0,">80",3,"WHITE",1,"M","Y","Y","N","Week 24",24.0,"RETRIEVAL","201",172.0,"2013-05-20","Comprehension Of Spoken Language","ACITM12",12.0,"  0.00000000000000","  0.00000000000000","   0.0000000000000000","                    NA","","Y","",">140",168.0,4.0,141.0,null,"DAYS",5042.0],["CDISCPILOT01","701","701","01-701-1115","2012-11-30","2013-01-23","Xanomeline Low Dose",54,84.0,">80",3,"WHITE",1,"M","Y","Y","N","Week 8",8.0,"WEEK 8","  8",55.0,"2013-01-23","Comprehension Of Spoken Language","ACITM12",12.0,"  0.00000000000000","  0.00000000000000","   0.0000000000000000","                    NA","","Y","","2-84",56.0,1.0,2.0,84.0,"DAYS",5027.0],["CDISCPILOT01","701","701","01-701-1115","2012-11-30","2013-01-23","Xanomeline Low Dose",54,84.0,">80",3,"WHITE",1,"M","Y","Y","N","Baseline",0.0,"BASELINE","  3",1.0,"2012-11-30","Word Finding Difficulty In Spontaneous S","ACITM13",13.0,"  0.00000000000000","  0.00000000000000","                   NA","                    NA","Y","Y","","<=1",1.0,0.0,null,1.0,"DAYS",5013.0],["CDISCPILOT01","701","701","01-701-1115","2012-11-30","2013-01-23","Xanomeline Low Dose",54,84.0,">80",3,"WHITE",1,"M","Y","Y","N","Week 24",24.0,"RETRIEVAL","201",172.0,"2013-05-20","Word Finding Difficulty In Spontaneous S","ACITM13",13.0,"  0.00000000000000","  0.00000000000000","   0.0000000000000000","                    NA","","Y","",">140",168.0,4.0,141.0,null,"DAYS",5043.0],["CDISCPILOT01","701","701","01-701-1115","2012-11-30","2013-01-23","Xanomeline Low Dose",54,84.0,">80",3,"WHITE",1,"M","Y","Y","N","Week 8",8.0,"WEEK 8","  8",55.0,"2013-01-23","Word Finding Difficulty In Spontaneous S","ACITM13",13.0,"  0.00000000000000","  0.00000000000000","   0.0000000000000000","                    NA","","Y","","2-84",56.0,1.0,2.0,84.0,"DAYS",5028.0],["CDISCPILOT01","701","701","01-701-1115","2012-11-30","2013-01-23","Xanomeline Low Dose",54,84.0,">80",3,"WHITE",1,"M","Y","Y","N","Baseline",0.0,"BASELINE","  3",1.0,"2012-11-30","Recall Of Test Instructions","ACITM14",14.0,"  0.00000000000000","  0.00000000000000","                   NA","                    NA","Y","Y","","<=1",1.0,0.0,null,1.0,"DAYS",5014.0],["CDISCPILOT01","701","701","01-701-1115","2012-11-30","2013-01-23","Xanomeline Low Dose",54,84.0,">80",3,"WHITE",1,"M","Y","Y","N","Week 24",24.0,"RETRIEVAL","201",172.0,"2013-05-20","Recall Of Test Instructions","ACITM14",14.0,"  0.00000000000000","  0.00000000000000","   0.0000000000000000","                    NA","","Y","",">140",168.0,4.0,141.0,null,"DAYS",5044.0],["CDISCPILOT01","701","701","01-701-1115","2012-11-30","2013-01-23","Xanomeline Low Dose",54,84.0,">80",3,"WHITE",1,"M","Y","Y","N","Week 8",8.0,"WEEK 8","  8",55.0,"2013-01-23","Recall Of Test Instructions","ACITM14",14.0,"  0.00000000000000","  0.00000000000000","   0.0000000000000000","                    NA","","Y","","2-84",56.0,1.0,2.0,84.0,"DAYS",5029.0],["CDISCPILOT01","701","701","01-701-1115","2012-11-30","2013-01-23","Xanomeline Low Dose",54,84.0,">80",3,"WHITE",1,"M","Y","Y","N","Baseline",0.0,"BASELINE","  3",1.0,"2012-11-30","Adas-Cog(11) Subscore","ACTOT",15.0," 10.00000000000000"," 10.00000000000000","                   NA","                    NA","Y","Y","","<=1",1.0,0.0,null,1.0,"DAYS",5015.0],["CDISCPILOT01","701","701","01-701-1115","2012-11-30","2013-01-23","Xanomeline Low Dose",54,84.0,">80",3,"WHITE",1,"M","Y","Y","N","Week 16",16.0,"WEEK 8","  8",55.0,"2013-01-23","Adas-Cog(11) Subscore","ACTOT",15.0," 14.00000000000000"," 10.00000000000000","   4.0000000000000000","   40.0000000000000000","","Y","LOCF","85-140",112.0,57.0,85.0,140.0,"DAYS",5030.0],["CDISCPILOT01","701","701","01-701-1115","2012-11-30","2013-01-23","Xanomeline Low Dose",54,84.0,">80",3,"WHITE",1,"M","Y","Y","N","Week 24",24.0,"RETRIEVAL","201",172.0,"2013-05-20","Adas-Cog(11) Subscore","ACTOT",15.0," 10.00000000000000"," 10.00000000000000","   0.0000000000000000","    0.0000000000000000","","Y","",">140",168.0,4.0,141.0,null,"DAYS",5045.0],["CDISCPILOT01","701","701","01-701-1115","2012-11-30","2013-01-23","Xanomeline Low Dose",54,84.0,">80",3,"WHITE",1,"M","Y","Y","N","Week 8",8.0,"WEEK 8","  8",55.0,"2013-01-23","Adas-Cog(11) Subscore","ACTOT",15.0," 14.00000000000000"," 10.00000000000000","   4.0000000000000000","   40.0000000000000000","","Y","","2-84",56.0,1.0,2.0,84.0,"DAYS",5030.0],["CDISCPILOT01","701","701","01-701-1118","2014-03-12","2014-09-09","Placebo",0,52.0,"<65",1,"WHITE",1,"M","Y","Y","Y","Baseline",0.0,"BASELINE","  3",1.0,"2014-03-12","Word Recall Task","ACITM01",1.0,"  5.00000000000000","  5.00000000000000","                   NA","                    NA","Y","Y","","<=1",1.0,0.0,null,1.0,"DAYS",5001.0],["CDISCPILOT01","701","701","01-701-1118","2014-03-12","2014-09-09","Placebo",0,52.0,"<65",1,"WHITE",1,"M","Y","Y","Y","Week 16",16.0,"WEEK 16"," 10",113.0,"2014-07-02","Word Recall Task","ACITM01",1.0,"  4.00000000000000","  5.00000000000000","  -1.0000000000000000","  -20.0000000000000000","","Y","","85-140",112.0,1.0,85.0,140.0,"DAYS",5031.0],["CDISCPILOT01","701","701","01-701-1118","2014-03-12","2014-09-09","Placebo",0,52.0,"<65",1,"WHITE",1,"M","Y","Y","Y","Week 24",24.0,"WEEK 24"," 12",169.0,"2014-08-27","Word Recall Task","ACITM01",1.0,"  5.00000000000000","  5.00000000000000","   0.0000000000000000","    0.0000000000000000","","Y","",">140",168.0,1.0,141.0,null,"DAYS",5046.0],["CDISCPILOT01","701","701","01-701-1118","2014-03-12","2014-09-09","Placebo",0,52.0,"<65",1,"WHITE",1,"M","Y","Y","Y","Week 8",8.0,"WEEK 8","  8",58.0,"2014-05-08","Word Recall Task","ACITM01",1.0,"  5.00000000000000","  5.00000000000000","   0.0000000000000000","    0.0000000000000000","","Y","","2-84",56.0,2.0,2.0,84.0,"DAYS",5016.0],["CDISCPILOT01","701","701","01-701-1118","2014-03-12","2014-09-09","Placebo",0,52.0,"<65",1,"WHITE",1,"M","Y","Y","Y","Baseline",0.0,"BASELINE","  3",1.0,"2014-03-12","Naming Objects And Fingers (Refer To 5 C","ACITM02",2.0,"  1.00000000000000","  1.00000000000000","                   NA","                    NA","Y","Y","","<=1",1.0,0.0,null,1.0,"DAYS",5002.0],["CDISCPILOT01","701","701","01-701-1118","2014-03-12","2014-09-09","Placebo",0,52.0,"<65",1,"WHITE",1,"M","Y","Y","Y","Week 16",16.0,"WEEK 16"," 10",113.0,"2014-07-02","Naming Objects And Fingers (Refer To 5 C","ACITM02",2.0,"  0.00000000000000","  1.00000000000000","  -1.0000000000000000"," -100.0000000000000000","","Y","","85-140",112.0,1.0,85.0,140.0,"DAYS",5032.0],["CDISCPILOT01","701","701","01-701-1118","2014-03-12","2014-09-09","Placebo",0,52.0,"<65",1,"WHITE",1,"M","Y","Y","Y","Week 24",24.0,"WEEK 24"," 12",169.0,"2014-08-27","Naming Objects And Fingers (Refer To 5 C","ACITM02",2.0,"  0.00000000000000","  1.00000000000000","  -1.0000000000000000"," -100.0000000000000000","","Y","",">140",168.0,1.0,141.0,null,"DAYS",5047.0],["CDISCPILOT01","701","701","01-701-1118","2014-03-12","2014-09-09","Placebo",0,52.0,"<65",1,"WHITE",1,"M","Y","Y","Y","Week 8",8.0,"WEEK 8","  8",58.0,"2014-05-08","Naming Objects And Fingers (Refer To 5 C","ACITM02",2.0,"  0.00000000000000","  1.00000000000000","  -1.0000000000000000"," -100.0000000000000000","","Y","","2-84",56.0,2.0,2.0,84.0,"DAYS",5017.0],["CDISCPILOT01","701","701","01-701-1118","2014-03-12","2014-09-09","Placebo",0,52.0,"<65",1,"WHITE",1,"M","Y","Y","Y","Baseline",0.0,"BASELINE","  3",1.0,"2014-03-12","Delayed Word Recall","ACITM03",3.0," 10.00000000000000"," 10.00000000000000","                   NA","                    NA","Y","Y","","<=1",1.0,0.0,null,1.0,"DAYS",5003.0],["CDISCPILOT01","701","701","01-701-1118","2014-03-12","2014-09-09","Placebo",0,52.0,"<65",1,"WHITE",1,"M","Y","Y","Y","Week 16",16.0,"WEEK 16"," 10",113.0,"2014-07-02","Delayed Word Recall","ACITM03",3.0,"  6.00000000000000"," 10.00000000000000","  -4.0000000000000000","  -40.0000000000000000","","Y","","85-140",112.0,1.0,85.0,140.0,"DAYS",5033.0],["CDISCPILOT01","701","701","01-701-1118","2014-03-12","2014-09-09","Placebo",0,52.0,"<65",1,"WHITE",1,"M","Y","Y","Y","Week 24",24.0,"WEEK 24"," 12",169.0,"2014-08-27","Delayed Word Recall","ACITM03",3.0,"  8.00000000000000"," 10.00000000000000","  -2.0000000000000000","  -20.0000000000000000","","Y","",">140",168.0,1.0,141.0,null,"DAYS",5048.0],["CDISCPILOT01","701","701","01-701-1118","2014-03-12","2014-09-09","Placebo",0,52.0,"<65",1,"WHITE",1,"M","Y","Y","Y","Week 8",8.0,"WEEK 8","  8",58.0,"2014-05-08","Delayed Word Recall","ACITM03",3.0,"  7.00000000000000"," 10.00000000000000","  -3.0000000000000000","  -30.0000000000000000","","Y","","2-84",56.0,2.0,2.0,84.0,"DAYS",5018.0],["CDISCPILOT01","701","701","01-701-1118","2014-03-12","2014-09-09","Placebo",0,52.0,"<65",1,"WHITE",1,"M","Y","Y","Y","Baseline",0.0,"BASELINE","  3",1.0,"2014-03-12","Commands","ACITM04",4.0,"  0.00000000000000","  0.00000000000000","                   NA","                    NA","Y","Y","","<=1",1.0,0.0,null,1.0,"DAYS",5004.0],["CDISCPILOT01","701","701","01-701-1118","2014-03-12","2014-09-09","Placebo",0,52.0,"<65",1,"WHITE",1,"M","Y","Y","Y","Week 16",16.0,"WEEK 16"," 10",113.0,"2014-07-02","Commands","ACITM04",4.0,"  0.00000000000000","  0.00000000000000","   0.0000000000000000","                    NA","","Y","","85-140",112.0,1.0,85.0,140.0,"DAYS",5034.0],["CDISCPILOT01","701","701","01-701-1118","2014-03-12","2014-09-09","Placebo",0,52.0,"<65",1,"WHITE",1,"M","Y","Y","Y","Week 24",24.0,"WEEK 24"," 12",169.0,"2014-08-27","Commands","ACITM04",4.0,"  0.00000000000000","  0.00000000000000","   0.0000000000000000","                    NA","","Y","",">140",168.0,1.0,141.0,null,"DAYS",5049.0],["CDISCPILOT01","701","701","01-701-1118","2014-03-12","2014-09-09","Placebo",0,52.0,"<65",1,"WHITE",1,"M","Y","Y","Y","Week 8",8.0,"WEEK 8","  8",58.0,"2014-05-08","Commands","ACITM04",4.0,"  0.00000000000000","  0.00000000000000","   0.0000000000000000","                    NA","","Y","","2-84",56.0,2.0,2.0,84.0,"DAYS",5019.0],["CDISCPILOT01","701","701","01-701-1118","2014-03-12","2014-09-09","Placebo",0,52.0,"<65",1,"WHITE",1,"M","Y","Y","Y","Baseline",0.0,"BASELINE","  3",1.0,"2014-03-12","Constructional Praxis","ACITM05",5.0,"  3.00000000000000","  3.00000000000000","                   NA","                    NA","Y","Y","","<=1",1.0,0.0,null,1.0,"DAYS",5005.0],["CDISCPILOT01","701","701","01-701-1118","2014-03-12","2014-09-09","Placebo",0,52.0,"<65",1,"WHITE",1,"M","Y","Y","Y","Week 16",16.0,"WEEK 16"," 10",113.0,"2014-07-02","Constructional Praxis","ACITM05",5.0,"  2.00000000000000","  3.00000000000000","  -1.0000000000000000","  -33.3333333333333286","","Y","","85-140",112.0,1.0,85.0,140.0,"DAYS",5035.0],["CDISCPILOT01","701","701","01-701-1118","2014-03-12","2014-09-09","Placebo",0,52.0,"<65",1,"WHITE",1,"M","Y","Y","Y","Week 24",24.0,"WEEK 24"," 12",169.0,"2014-08-27","Constructional Praxis","ACITM05",5.0,"  2.00000000000000","  3.00000000000000","  -1.0000000000000000","  -33.3333333333333286","","Y","",">140",168.0,1.0,141.0,null,"DAYS",5050.0],["CDISCPILOT01","701","701","01-701-1118","2014-03-12","2014-09-09","Placebo",0,52.0,"<65",1,"WHITE",1,"M","Y","Y","Y","Week 8",8.0,"WEEK 8","  8",58.0,"2014-05-08","Constructional Praxis","ACITM05",5.0,"  3.00000000000000","  3.00000000000000","   0.0000000000000000","    0.0000000000000000","","Y","","2-84",56.0,2.0,2.0,84.0,"DAYS",5020.0],["CDISCPILOT01","701","701","01-701-1118","2014-03-12","2014-09-09","Placebo",0,52.0,"<65",1,"WHITE",1,"M","Y","Y","Y","Baseline",0.0,"BASELINE","  3",1.0,"2014-03-12","Ideational Praxis","ACITM06",6.0,"  1.00000000000000","  1.00000000000000","                   NA","                    NA","Y","Y","","<=1",1.0,0.0,null,1.0,"DAYS",5006.0],["CDISCPILOT01","701","701","01-701-1118","2014-03-12","2014-09-09","Placebo",0,52.0,"<65",1,"WHITE",1,"M","Y","Y","Y","Week 16",16.0,"WEEK 16"," 10",113.0,"2014-07-02","Ideational Praxis","ACITM06",6.0,"  0.00000000000000","  1.00000000000000","  -1.0000000000000000"," -100.0000000000000000","","Y","","85-140",112.0,1.0,85.0,140.0,"DAYS",5036.0],["CDISCPILOT01","701","701","01-701-1118","2014-03-12","2014-09-09","Placebo",0,52.0,"<65",1,"WHITE",1,"M","Y","Y","Y","Week 24",24.0,"WEEK 24"," 12",169.0,"2014-08-27","Ideational Praxis","ACITM06",6.0,"  0.00000000000000","  1.00000000000000","  -1.0000000000000000"," -100.0000000000000000","","Y","",">140",168.0,1.0,141.0,null,"DAYS",5051.0],["CDISCPILOT01","701","701","01-701-1118","2014-03-12","2014-09-09","Placebo",0,52.0,"<65",1,"WHITE",1,"M","Y","Y","Y","Week 8",8.0,"WEEK 8","  8",58.0,"2014-05-08","Ideational Praxis","ACITM06",6.0,"  0.00000000000000","  1.00000000000000","  -1.0000000000000000"," -100.0000000000000000","","Y","","2-84",56.0,2.0,2.0,84.0,"DAYS",5021.0],["CDISCPILOT01","701","701","01-701-1118","2014-03-12","2014-09-09","Placebo",0,52.0,"<65",1,"WHITE",1,"M","Y","Y","Y","Baseline",0.0,"BASELINE","  3",1.0,"2014-03-12","Orientation","ACITM07",7.0,"  4.00000000000000","  4.00000000000000","                   NA","                    NA","Y","Y","","<=1",1.0,0.0,null,1.0,"DAYS",5007.0],["CDISCPILOT01","701","701","01-701-1118","2014-03-12","2014-09-09","Placebo",0,52.0,"<65",1,"WHITE",1,"M","Y","Y","Y","Week 16",16.0,"WEEK 16"," 10",113.0,"2014-07-02","Orientation","ACITM07",7.0,"  1.00000000000000","  4.00000000000000","  -3.0000000000000000","  -75.0000000000000000","","Y","","85-140",112.0,1.0,85.0,140.0,"DAYS",5037.0],["CDISCPILOT01","701","701","01-701-1118","2014-03-12","2014-09-09","Placebo",0,52.0,"<65",1,"WHITE",1,"M","Y","Y","Y","Week 24",24.0,"WEEK 24"," 12",169.0,"2014-08-27","Orientation","ACITM07",7.0,"  1.00000000000000","  4.00000000000000","  -3.0000000000000000","  -75.0000000000000000","","Y","",">140",168.0,1.0,141.0,null,"DAYS",5052.0],["CDISCPILOT01","701","701","01-701-1118","2014-03-12","2014-09-09","Placebo",0,52.0,"<65",1,"WHITE",1,"M","Y","Y","Y","Week 8",8.0,"WEEK 8","  8",58.0,"2014-05-08","Orientation","ACITM07",7.0,"  1.00000000000000","  4.00000000000000","  -3.0000000000000000","  -75.0000000000000000","","Y","","2-84",56.0,2.0,2.0,84.0,"DAYS",5022.0],["CDISCPILOT01","701","701","01-701-1118","2014-03-12","2014-09-09","Placebo",0,52.0,"<65",1,"WHITE",1,"M","Y","Y","Y","Baseline",0.0,"BASELINE","  3",1.0,"2014-03-12","Word Recognition","ACITM08",8.0," 10.00000000000000"," 10.00000000000000","                   NA","                    NA","Y","Y","","<=1",1.0,0.0,null,1.0,"DAYS",5008.0],["CDISCPILOT01","701","701","01-701-1118","2014-03-12","2014-09-09","Placebo",0,52.0,"<65",1,"WHITE",1,"M","Y","Y","Y","Week 16",16.0,"WEEK 16"," 10",113.0,"2014-07-02","Word Recognition","ACITM08",8.0," 10.00000000000000"," 10.00000000000000","   0.0000000000000000","    0.0000000000000000","","Y","","85-140",112.0,1.0,85.0,140.0,"DAYS",5038.0],["CDISCPILOT01","701","701","01-701-1118","2014-03-12","2014-09-09","Placebo",0,52.0,"<65",1,"WHITE",1,"M","Y","Y","Y","Week 24",24.0,"WEEK 24"," 12",169.0,"2014-08-27","Word Recognition","ACITM08",8.0,"  7.00000000000000"," 10.00000000000000","  -3.0000000000000000","  -30.0000000000000000","","Y","",">140",168.0,1.0,141.0,null,"DAYS",5053.0],["CDISCPILOT01","701","701","01-701-1118","2014-03-12","2014-09-09","Placebo",0,52.0,"<65",1,"WHITE",1,"M","Y","Y","Y","Week 8",8.0,"WEEK 8","  8",58.0,"2014-05-08","Word Recognition","ACITM08",8.0," 10.00000000000000"," 10.00000000000000","   0.0000000000000000","    0.0000000000000000","","Y","","2-84",56.0,2.0,2.0,84.0,"DAYS",5023.0],["CDISCPILOT01","701","701","01-701-1118","2014-03-12","2014-09-09","Placebo",0,52.0,"<65",1,"WHITE",1,"M","Y","Y","Y","Baseline",0.0,"BASELINE","  3",1.0,"2014-03-12","Attention/Visual Search Task","ACITM09",9.0," 12.00000000000000"," 12.00000000000000","                   NA","                    NA","Y","Y","","<=1",1.0,0.0,null,1.0,"DAYS",5009.0],["CDISCPILOT01","701","701","01-701-1118","2014-03-12","2014-09-09","Placebo",0,52.0,"<65",1,"WHITE",1,"M","Y","Y","Y","Week 16",16.0,"WEEK 16"," 10",113.0,"2014-07-02","Attention/Visual Search Task","ACITM09",9.0," 11.00000000000000"," 12.00000000000000","  -1.0000000000000000","   -8.3333333333333321","","Y","","85-140",112.0,1.0,85.0,140.0,"DAYS",5039.0],["CDISCPILOT01","701","701","01-701-1118","2014-03-12","2014-09-09","Placebo",0,52.0,"<65",1,"WHITE",1,"M","Y","Y","Y","Week 24",24.0,"WEEK 24"," 12",169.0,"2014-08-27","Attention/Visual Search Task","ACITM09",9.0," 18.00000000000000"," 12.00000000000000","   6.0000000000000000","   50.0000000000000000","","Y","",">140",168.0,1.0,141.0,null,"DAYS",5054.0],["CDISCPILOT01","701","701","01-701-1118","2014-03-12","2014-09-09","Placebo",0,52.0,"<65",1,"WHITE",1,"M","Y","Y","Y","Week 8",8.0,"WEEK 8","  8",58.0,"2014-05-08","Attention/Visual Search Task","ACITM09",9.0," 10.00000000000000"," 12.00000000000000","  -2.0000000000000000","  -16.6666666666666643","","Y","","2-84",56.0,2.0,2.0,84.0,"DAYS",5024.0],["CDISCPILOT01","701","701","01-701-1118","2014-03-12","2014-09-09","Placebo",0,52.0,"<65",1,"WHITE",1,"M","Y","Y","Y","Baseline",0.0,"BASELINE","  3",1.0,"2014-03-12","Maze Solution","ACITM10",10.0,"  6.00000000000000","  6.00000000000000","                   NA","                    NA","Y","Y","","<=1",1.0,0.0,null,1.0,"DAYS",5010.0],["CDISCPILOT01","701","701","01-701-1118","2014-03-12","2014-09-09","Placebo",0,52.0,"<65",1,"WHITE",1,"M","Y","Y","Y","Week 16",16.0,"WEEK 16"," 10",113.0,"2014-07-02","Maze Solution","ACITM10",10.0,"  9.00000000000000","  6.00000000000000","   3.0000000000000000","   50.0000000000000000","","Y","","85-140",112.0,1.0,85.0,140.0,"DAYS",5040.0],["CDISCPILOT01","701","701","01-701-1118","2014-03-12","2014-09-09","Placebo",0,52.0,"<65",1,"WHITE",1,"M","Y","Y","Y","Week 24",24.0,"WEEK 24"," 12",169.0,"2014-08-27","Maze Solution","ACITM10",10.0,"  7.00000000000000","  6.00000000000000","   1.0000000000000000","   16.6666666666666643","","Y","",">140",168.0,1.0,141.0,null,"DAYS",5055.0],["CDISCPILOT01","701","701","01-701-1118","2014-03-12","2014-09-09","Placebo",0,52.0,"<65",1,"WHITE",1,"M","Y","Y","Y","Week 8",8.0,"WEEK 8","  8",58.0,"2014-05-08","Maze Solution","ACITM10",10.0,"  7.00000000000000","  6.00000000000000","   1.0000000000000000","   16.6666666666666643","","Y","","2-84",56.0,2.0,2.0,84.0,"DAYS",5025.0],["CDISCPILOT01","701","701","01-701-1118","2014-03-12","2014-09-09","Placebo",0,52.0,"<65",1,"WHITE",1,"M","Y","Y","Y","Baseline",0.0,"BASELINE","  3",1.0,"2014-03-12","Spoken Language Ability","ACITM11",11.0,"  0.00000000000000","  0.00000000000000","                   NA","                    NA","Y","Y","","<=1",1.0,0.0,null,1.0,"DAYS",5011.0],["CDISCPILOT01","701","701","01-701-1118","2014-03-12","2014-09-09","Placebo",0,52.0,"<65",1,"WHITE",1,"M","Y","Y","Y","Week 16",16.0,"WEEK 16"," 10",113.0,"2014-07-02","Spoken Language Ability","ACITM11",11.0,"  0.00000000000000","  0.00000000000000","   0.0000000000000000","                    NA","","Y","","85-140",112.0,1.0,85.0,140.0,"DAYS",5041.0],["CDISCPILOT01","701","701","01-701-1118","2014-03-12","2014-09-09","Placebo",0,52.0,"<65",1,"WHITE",1,"M","Y","Y","Y","Week 24",24.0,"WEEK 24"," 12",169.0,"2014-08-27","Spoken Language Ability","ACITM11",11.0,"  0.00000000000000","  0.00000000000000","   0.0000000000000000","                    NA","","Y","",">140",168.0,1.0,141.0,null,"DAYS",5056.0],["CDISCPILOT01","701","701","01-701-1118","2014-03-12","2014-09-09","Placebo",0,52.0,"<65",1,"WHITE",1,"M","Y","Y","Y","Week 8",8.0,"WEEK 8","  8",58.0,"2014-05-08","Spoken Language Ability","ACITM11",11.0,"  0.00000000000000","  0.00000000000000","   0.0000000000000000","                    NA","","Y","","2-84",56.0,2.0,2.0,84.0,"DAYS",5026.0],["CDISCPILOT01","701","701","01-701-1118","2014-03-12","2014-09-09","Placebo",0,52.0,"<65",1,"WHITE",1,"M","Y","Y","Y","Baseline",0.0,"BASELINE","  3",1.0,"2014-03-12","Comprehension Of Spoken Language","ACITM12",12.0,"  0.00000000000000","  0.00000000000000","                   NA","                    NA","Y","Y","","<=1",1.0,0.0,null,1.0,"DAYS",5012.0],["CDISCPILOT01","701","701","01-701-1118","2014-03-12","2014-09-09","Placebo",0,52.0,"<65",1,"WHITE",1,"M","Y","Y","Y","Week 16",16.0,"WEEK 16"," 10",113.0,"2014-07-02","Comprehension Of Spoken Language","ACITM12",12.0,"  0.00000000000000","  0.00000000000000","   0.0000000000000000","                    NA","","Y","","85-140",112.0,1.0,85.0,140.0,"DAYS",5042.0],["CDISCPILOT01","701","701","01-701-1118","2014-03-12","2014-09-09","Placebo",0,52.0,"<65",1,"WHITE",1,"M","Y","Y","Y","Week 24",24.0,"WEEK 24"," 12",169.0,"2014-08-27","Comprehension Of Spoken Language","ACITM12",12.0,"  0.00000000000000","  0.00000000000000","   0.0000000000000000","                    NA","","Y","",">140",168.0,1.0,141.0,null,"DAYS",5057.0],["CDISCPILOT01","701","701","01-701-1118","2014-03-12","2014-09-09","Placebo",0,52.0,"<65",1,"WHITE",1,"M","Y","Y","Y","Week 8",8.0,"WEEK 8","  8",58.0,"2014-05-08","Comprehension Of Spoken Language","ACITM12",12.0,"  0.00000000000000","  0.00000000000000","   0.0000000000000000","                    NA","","Y","","2-84",56.0,2.0,2.0,84.0,"DAYS",5027.0],["CDISCPILOT01","701","701","01-701-1118","2014-03-12","2014-09-09","Placebo",0,52.0,"<65",1,"WHITE",1,"M","Y","Y","Y","Baseline",0.0,"BASELINE","  3",1.0,"2014-03-12","Word Finding Difficulty In Spontaneous S","ACITM13",13.0,"  1.00000000000000","  1.00000000000000","                   NA","                    NA","Y","Y","","<=1",1.0,0.0,null,1.0,"DAYS",5013.0],["CDISCPILOT01","701","701","01-701-1118","2014-03-12","2014-09-09","Placebo",0,52.0,"<65",1,"WHITE",1,"M","Y","Y","Y","Week 16",16.0,"WEEK 16"," 10",113.0,"2014-07-02","Word Finding Difficulty In Spontaneous S","ACITM13",13.0,"  0.00000000000000","  1.00000000000000","  -1.0000000000000000"," -100.0000000000000000","","Y","","85-140",112.0,1.0,85.0,140.0,"DAYS",5043.0],["CDISCPILOT01","701","701","01-701-1118","2014-03-12","2014-09-09","Placebo",0,52.0,"<65",1,"WHITE",1,"M","Y","Y","Y","Week 24",24.0,"WEEK 24"," 12",169.0,"2014-08-27","Word Finding Difficulty In Spontaneous S","ACITM13",13.0,"  0.00000000000000","  1.00000000000000","  -1.0000000000000000"," -100.0000000000000000","","Y","",">140",168.0,1.0,141.0,null,"DAYS",5058.0],["CDISCPILOT01","701","701","01-701-1118","2014-03-12","2014-09-09","Placebo",0,52.0,"<65",1,"WHITE",1,"M","Y","Y","Y","Week 8",8.0,"WEEK 8","  8",58.0,"2014-05-08","Word Finding Difficulty In Spontaneous S","ACITM13",13.0,"  0.00000000000000","  1.00000000000000","  -1.0000000000000000"," -100.0000000000000000","","Y","","2-84",56.0,2.0,2.0,84.0,"DAYS",5028.0],["CDISCPILOT01","701","701","01-701-1118","2014-03-12","2014-09-09","Placebo",0,52.0,"<65",1,"WHITE",1,"M","Y","Y","Y","Baseline",0.0,"BASELINE","  3",1.0,"2014-03-12","Recall Of Test Instructions","ACITM14",14.0,"  1.00000000000000","  1.00000000000000","                   NA","                    NA","Y","Y","","<=1",1.0,0.0,null,1.0,"DAYS",5014.0],["CDISCPILOT01","701","701","01-701-1118","2014-03-12","2014-09-09","Placebo",0,52.0,"<65",1,"WHITE",1,"M","Y","Y","Y","Week 16",16.0,"WEEK 16"," 10",113.0,"2014-07-02","Recall Of Test Instructions","ACITM14",14.0,"  0.00000000000000","  1.00000000000000","  -1.0000000000000000"," -100.0000000000000000","","Y","","85-140",112.0,1.0,85.0,140.0,"DAYS",5044.0],["CDISCPILOT01","701","701","01-701-1118","2014-03-12","2014-09-09","Placebo",0,52.0,"<65",1,"WHITE",1,"M","Y","Y","Y","Week 24",24.0,"WEEK 24"," 12",169.0,"2014-08-27","Recall Of Test Instructions","ACITM14",14.0,"  0.00000000000000","  1.00000000000000","  -1.0000000000000000"," -100.0000000000000000","","Y","",">140",168.0,1.0,141.0,null,"DAYS",5059.0],["CDISCPILOT01","701","701","01-701-1118","2014-03-12","2014-09-09","Placebo",0,52.0,"<65",1,"WHITE",1,"M","Y","Y","Y","Week 8",8.0,"WEEK 8","  8",58.0,"2014-05-08","Recall Of Test Instructions","ACITM14",14.0,"  0.00000000000000","  1.00000000000000","  -1.0000000000000000"," -100.0000000000000000","","Y","","2-84",56.0,2.0,2.0,84.0,"DAYS",5029.0],["CDISCPILOT01","701","701","01-701-1118","2014-03-12","2014-09-09","Placebo",0,52.0,"<65",1,"WHITE",1,"M","Y","Y","Y","Baseline",0.0,"BASELINE","  3",1.0,"2014-03-12","Adas-Cog(11) Subscore","ACTOT",15.0," 26.00000000000000"," 26.00000000000000","                   NA","                    NA","Y","Y","","<=1",1.0,0.0,null,1.0,"DAYS",5015.0],["CDISCPILOT01","701","701","01-701-1118","2014-03-12","2014-09-09","Placebo",0,52.0,"<65",1,"WHITE",1,"M","Y","Y","Y","Week 16",16.0,"WEEK 16"," 10",113.0,"2014-07-02","Adas-Cog(11) Subscore","ACTOT",15.0," 17.00000000000000"," 26.00000000000000","  -9.0000000000000000","  -34.6153846153846132","","Y","","85-140",112.0,1.0,85.0,140.0,"DAYS",5045.0],["CDISCPILOT01","701","701","01-701-1118","2014-03-12","2014-09-09","Placebo",0,52.0,"<65",1,"WHITE",1,"M","Y","Y","Y","Week 24",24.0,"WEEK 24"," 12",169.0,"2014-08-27","Adas-Cog(11) Subscore","ACTOT",15.0," 15.00000000000000"," 26.00000000000000"," -11.0000000000000000","  -42.3076923076923066","","Y","",">140",168.0,1.0,141.0,null,"DAYS",5060.0],["CDISCPILOT01","701","701","01-701-1118","2014-03-12","2014-09-09","Placebo",0,52.0,"<65",1,"WHITE",1,"M","Y","Y","Y","Week 8",8.0,"WEEK 8","  8",58.0,"2014-05-08","Adas-Cog(11) Subscore","ACTOT",15.0," 19.00000000000000"," 26.00000000000000","  -7.0000000000000000","  -26.9230769230769234","","Y","","2-84",56.0,2.0,2.0,84.0,"DAYS",5030.0],["CDISCPILOT01","701","701","01-701-1130","2014-02-15","2014-08-16","Placebo",0,84.0,">80",3,"WHITE",1,"M","Y","Y","Y","Baseline",0.0,"BASELINE","  3",1.0,"2014-02-15","Word Recall Task","ACITM01",1.0,"  4.00000000000000","  4.00000000000000","                   NA","                    NA","Y","Y","","<=1",1.0,0.0,null,1.0,"DAYS",5001.0],["CDISCPILOT01","701","701","01-701-1130","2014-02-15","2014-08-16","Placebo",0,84.0,">80",3,"WHITE",1,"M","Y","Y","Y","Week 16",16.0,"WEEK 16"," 10",113.0,"2014-06-07","Word Recall Task","ACITM01",1.0,"  5.00000000000000","  4.00000000000000","   1.0000000000000000","   25.0000000000000000","","Y","","85-140",112.0,1.0,85.0,140.0,"DAYS",5031.0],["CDISCPILOT01","701","701","01-701-1130","2014-02-15","2014-08-16","Placebo",0,84.0,">80",3,"WHITE",1,"M","Y","Y","Y","Week 24",24.0,"WEEK 24"," 12",169.0,"2014-08-02","Word Recall Task","ACITM01",1.0,"  4.00000000000000","  4.00000000000000","   0.0000000000000000","    0.0000000000000000","","Y","",">140",168.0,1.0,141.0,null,"DAYS",5046.0],["CDISCPILOT01","701","701","01-701-1130","2014-02-15","2014-08-16","Placebo",0,84.0,">80",3,"WHITE",1,"M","Y","Y","Y","Week 8",8.0,"WEEK 8","  8",57.0,"2014-04-12","Word Recall Task","ACITM01",1.0,"  4.00000000000000","  4.00000000000000","   0.0000000000000000","    0.0000000000000000","","Y","","2-84",56.0,1.0,2.0,84.0,"DAYS",5016.0],["CDISCPILOT01","701","701","01-701-1130","2014-02-15","2014-08-16","Placebo",0,84.0,">80",3,"WHITE",1,"M","Y","Y","Y","Baseline",0.0,"BASELINE","  3",1.0,"2014-02-15","Naming Objects And Fingers (Refer To 5 C","ACITM02",2.0,"  0.00000000000000","  0.00000000000000","                   NA","                    NA","Y","Y","","<=1",1.0,0.0,null,1.0,"DAYS",5002.0],["CDISCPILOT01","701","701","01-701-1130","2014-02-15","2014-08-16","Placebo",0,84.0,">80",3,"WHITE",1,"M","Y","Y","Y","Week 16",16.0,"WEEK 16"," 10",113.0,"2014-06-07","Naming Objects And Fingers (Refer To 5 C","ACITM02",2.0,"  0.00000000000000","  0.00000000000000","   0.0000000000000000","                    NA","","Y","","85-140",112.0,1.0,85.0,140.0,"DAYS",5032.0],["CDISCPILOT01","701","701","01-701-1130","2014-02-15","2014-08-16","Placebo",0,84.0,">80",3,"WHITE",1,"M","Y","Y","Y","Week 24",24.0,"WEEK 24"," 12",169.0,"2014-08-02","Naming Objects And Fingers (Refer To 5 C","ACITM02",2.0,"  0.00000000000000","  0.00000000000000","   0.0000000000000000","                    NA","","Y","",">140",168.0,1.0,141.0,null,"DAYS",5047.0],["CDISCPILOT01","701","701","01-701-1130","2014-02-15","2014-08-16","Placebo",0,84.0,">80",3,"WHITE",1,"M","Y","Y","Y","Week 8",8.0,"WEEK 8","  8",57.0,"2014-04-12","Naming Objects And Fingers (Refer To 5 C","ACITM02",2.0,"  0.00000000000000","  0.00000000000000","   0.0000000000000000","                    NA","","Y","","2-84",56.0,1.0,2.0,84.0,"DAYS",5017.0],["CDISCPILOT01","701","701","01-701-1130","2014-02-15","2014-08-16","Placebo",0,84.0,">80",3,"WHITE",1,"M","Y","Y","Y","Baseline",0.0,"BASELINE","  3",1.0,"2014-02-15","Delayed Word Recall","ACITM03",3.0," 10.00000000000000"," 10.00000000000000","                   NA","                    NA","Y","Y","","<=1",1.0,0.0,null,1.0,"DAYS",5003.0],["CDISCPILOT01","701","701","01-701-1130","2014-02-15","2014-08-16","Placebo",0,84.0,">80",3,"WHITE",1,"M","Y","Y","Y","Week 16",16.0,"WEEK 16"," 10",113.0,"2014-06-07","Delayed Word Recall","ACITM03",3.0," 10.00000000000000"," 10.00000000000000","   0.0000000000000000","    0.0000000000000000","","Y","","85-140",112.0,1.0,85.0,140.0,"DAYS",5033.0],["CDISCPILOT01","701","701","01-701-1130","2014-02-15","2014-08-16","Placebo",0,84.0,">80",3,"WHITE",1,"M","Y","Y","Y","Week 24",24.0,"WEEK 24"," 12",169.0,"2014-08-02","Delayed Word Recall","ACITM03",3.0," 10.00000000000000"," 10.00000000000000","   0.0000000000000000","    0.0000000000000000","","Y","",">140",168.0,1.0,141.0,null,"DAYS",5048.0],["CDISCPILOT01","701","701","01-701-1130","2014-02-15","2014-08-16","Placebo",0,84.0,">80",3,"WHITE",1,"M","Y","Y","Y","Week 8",8.0,"WEEK 8","  8",57.0,"2014-04-12","Delayed Word Recall","ACITM03",3.0," 10.00000000000000"," 10.00000000000000","   0.0000000000000000","    0.0000000000000000","","Y","","2-84",56.0,1.0,2.0,84.0,"DAYS",5018.0],["CDISCPILOT01","701","701","01-701-1130","2014-02-15","2014-08-16","Placebo",0,84.0,">80",3,"WHITE",1,"M","Y","Y","Y","Baseline",0.0,"BASELINE","  3",1.0,"2014-02-15","Commands","ACITM04",4.0,"  0.00000000000000","  0.00000000000000","                   NA","                    NA","Y","Y","","<=1",1.0,0.0,null,1.0,"DAYS",5004.0],["CDISCPILOT01","701","701","01-701-1130","2014-02-15","2014-08-16","Placebo",0,84.0,">80",3,"WHITE",1,"M","Y","Y","Y","Week 16",