{"datasetJSONCreationDateTime":"2026-06-28T22:28:04","datasetJSONVersion":"1.1.0","fileOID":"C:/Users/Sam P/Documents/01-projects/programming/submissions-pilot5-datasetjson/pilot5-submission/pilot5-input/adamdata/adlbc","dbLastModifiedDateTime":"2026-06-29T02:28","originator":"R Submission Pilot 5","sourceSystem":{"name":"R on mingw32 10 x64","version":"R version 4.4.3 (2025-02-28 ucrt)"},"studyOID":"Pilot 5","metaDataVersionOID":"MDV.TDF_ADaM.ADaM-IG.1.1","metaDataRef":"C:/Users/Sam P/Documents/01-projects/programming/submissions-pilot5-datasetjson/pilot5-submission/pilot5-input/adamdata/define.xml","itemGroupOID":"IG.ADLBC","records":37132,"name":"ADLBC","label":"Analysis Dataset Lab Blood Chemistry","columns":[{"itemOID":"IT.ADLBC.STUDYID","name":"STUDYID","label":"Study Identifier","dataType":"string","length":12},{"itemOID":"IT.ADLBC.SUBJID","name":"SUBJID","label":"Subject Identifier for the Study","dataType":"string","length":4},{"itemOID":"IT.ADLBC.USUBJID","name":"USUBJID","label":"Unique Subject Identifier","dataType":"string","length":11,"keySequence":1},{"itemOID":"IT.ADLBC.TRTP","name":"TRTP","label":"Planned Treatment","dataType":"string","length":20},{"itemOID":"IT.ADLBC.TRTPN","name":"TRTPN","label":"Planned Treatment (N)","dataType":"integer"},{"itemOID":"IT.ADLBC.TRTA","name":"TRTA","label":"Actual Treatment","dataType":"string","length":20},{"itemOID":"IT.ADLBC.TRTAN","name":"TRTAN","label":"Actual Treatment (N)","dataType":"integer"},{"itemOID":"IT.ADLBC.TRTSDT","name":"TRTSDT","label":"Date of First Exposure to Treatment","dataType":"date","displayFormat":"DATE9.","targetDataType":"integer"},{"itemOID":"IT.ADLBC.TRTEDT","name":"TRTEDT","label":"Date of Last Exposure to Treatment","dataType":"date","displayFormat":"DATE9.","targetDataType":"integer"},{"itemOID":"IT.ADLBC.AGE","name":"AGE","label":"Age","dataType":"integer"},{"itemOID":"IT.ADLBC.AGEGR1","name":"AGEGR1","label":"Pooled Age Group 1","dataType":"string","length":5},{"itemOID":"IT.ADLBC.AGEGR1N","name":"AGEGR1N","label":"Pooled Age Group 1 (N)","dataType":"integer"},{"itemOID":"IT.ADLBC.RACE","name":"RACE","label":"Race","dataType":"string","length":32},{"itemOID":"IT.ADLBC.RACEN","name":"RACEN","label":"Race (N)","dataType":"integer"},{"itemOID":"IT.ADLBC.SEX","name":"SEX","label":"Sex","dataType":"string","length":1},{"itemOID":"IT.ADLBC.COMP24FL","name":"COMP24FL","label":"Completers of Week 24 Population Flag","dataType":"string","length":1},{"itemOID":"IT.ADLBC.DSRAEFL","name":"DSRAEFL","label":"Discontinued due to AE?","dataType":"string","length":1},{"itemOID":"IT.ADLBC.SAFFL","name":"SAFFL","label":"Safety Population Flag","dataType":"string","length":1},{"itemOID":"IT.ADLBC.AVISIT","name":"AVISIT","label":"Analysis Visit","dataType":"string","length":16,"keySequence":3},{"itemOID":"IT.ADLBC.AVISITN","name":"AVISITN","label":"Analysis Visit (N)","dataType":"integer"},{"itemOID":"IT.ADLBC.ADY","name":"ADY","label":"Analysis Relative Day","dataType":"integer"},{"itemOID":"IT.ADLBC.ADT","name":"ADT","label":"Analysis Date","dataType":"date","displayFormat":"DATE9.","targetDataType":"integer"},{"itemOID":"IT.ADLBC.VISIT","name":"VISIT","label":"Visit Name","dataType":"string","length":19},{"itemOID":"IT.ADLBC.VISITNUM","name":"VISITNUM","label":"Visit Number","dataType":"decimal","targetDataType":"decimal"},{"itemOID":"IT.ADLBC.PARAM","name":"PARAM","label":"Parameter","dataType":"string","length":100},{"itemOID":"IT.ADLBC.PARAMCD","name":"PARAMCD","label":"Parameter Code","dataType":"string","length":8,"keySequence":2},{"itemOID":"IT.ADLBC.PARAMN","name":"PARAMN","label":"Parameter (N)","dataType":"integer"},{"itemOID":"IT.ADLBC.PARCAT1","name":"PARCAT1","label":"Parameter Category 1","dataType":"string","length":5},{"itemOID":"IT.ADLBC.AVAL","name":"AVAL","label":"Analysis Value","dataType":"decimal","targetDataType":"decimal"},{"itemOID":"IT.ADLBC.BASE","name":"BASE","label":"Baseline Value","dataType":"decimal","targetDataType":"decimal"},{"itemOID":"IT.ADLBC.CHG","name":"CHG","label":"Change from Baseline","dataType":"decimal","targetDataType":"decimal"},{"itemOID":"IT.ADLBC.A1LO","name":"A1LO","label":"Analysis Range 1 Lower Limit","dataType":"decimal","targetDataType":"decimal"},{"itemOID":"IT.ADLBC.A1HI","name":"A1HI","label":"Analysis Range 1 Upper Limit","dataType":"decimal","targetDataType":"decimal"},{"itemOID":"IT.ADLBC.R2A1LO","name":"R2A1LO","label":"Ratio to Analysis Range 1 Lower Limit","dataType":"decimal","targetDataType":"decimal"},{"itemOID":"IT.ADLBC.R2A1HI","name":"R2A1HI","label":"Ratio to Analysis Range 1 Upper Limit","dataType":"decimal","targetDataType":"decimal"},{"itemOID":"IT.ADLBC.BR2A1LO","name":"BR2A1LO","label":"Base Ratio to Analysis Range 1 Lower Lim","dataType":"decimal","targetDataType":"decimal"},{"itemOID":"IT.ADLBC.BR2A1HI","name":"BR2A1HI","label":"Base Ratio to Analysis Range 1 Upper Lim","dataType":"decimal","targetDataType":"decimal"},{"itemOID":"IT.ADLBC.ANL01FL","name":"ANL01FL","label":"Analysis Flag 01","dataType":"string","length":1},{"itemOID":"IT.ADLBC.ALBTRVAL","name":"ALBTRVAL","label":"Amount Threshold Range","dataType":"decimal","targetDataType":"decimal"},{"itemOID":"IT.ADLBC.ANRIND","name":"ANRIND","label":"Analysis Reference Range Indicator","dataType":"string","length":1},{"itemOID":"IT.ADLBC.BNRIND","name":"BNRIND","label":"Baseline Reference Range Indicator","dataType":"string","length":1},{"itemOID":"IT.ADLBC.ABLFL","name":"ABLFL","label":"Baseline Record Flag","dataType":"string","length":1},{"itemOID":"IT.ADLBC.AENTMTFL","name":"AENTMTFL","label":"Last value in treatment visit","dataType":"string","length":1},{"itemOID":"IT.ADLBC.LBSEQ","name":"LBSEQ","label":"Sequence Number","dataType":"integer","keySequence":4},{"itemOID":"IT.ADLBC.LBNRIND","name":"LBNRIND","label":"Reference Range Indicator","dataType":"string","length":8},{"itemOID":"IT.ADLBC.LBSTRESN","name":"LBSTRESN","label":"Numeric Result/Finding in Standard Units","dataType":"decimal","targetDataType":"decimal"}],"rows":[["CDISCPILOT01","1015","01-701-1015","Placebo",0,"Placebo",0,"2014-01-02","2014-07-02",63,"<65",1,"WHITE",1,"F","Y","","Y","Week 6",6.0,42.0,"2014-02-12","WEEK 6"," 7.000000000000000","Albumin (g/L)","ALB",33.0,"CHEM","  37.0000000000000000"," 38.0000000000000000","  -1.00000000000000000"," 33.000000000000000"," 49.000000000000000"," 1.1212121212121211","0.7551020408163265"," 1.1515151515151516","0.7755102040816326","Y","  36.500000000000000","N","N","","",104.0,"NORMAL","  37.0000000000000000"],["CDISCPILOT01","1015","01-701-1015","Placebo",0,"Placebo",0,"2014-01-02","2014-07-02",63,"<65",1,"WHITE",1,"F","Y","","Y","Week 4",4.0,29.0,"2014-01-30","WEEK 4"," 5.000000000000000","Alkaline Phosphatase (U/L)","ALP",22.0,"CHEM","  41.0000000000000000"," 34.0000000000000000","   7.00000000000000000"," 35.000000000000000","115.000000000000000"," 1.1714285714285715","0.3565217391304348"," 0.9714285714285714","0.2956521739130435","Y"," 131.500000000000000","N","N","","",75.0,"NORMAL","  41.0000000000000000"],["CDISCPILOT01","1015","01-701-1015","Placebo",0,"Placebo",0,"2014-01-02","2014-07-02",63,"<65",1,"WHITE",1,"F","Y","","Y","Week 2",2.0,15.0,"2014-01-16","WEEK 2"," 4.000000000000000","Alanine Aminotransferase (U/L)","ALT",24.0,"CHEM","  41.0000000000000000"," 27.0000000000000000","  14.00000000000000000","  6.000000000000000"," 34.000000000000000"," 6.8333333333333330","1.2058823529411764"," 4.5000000000000000","0.7941176470588235","Y","  38.000000000000000","N","N","","",41.0,"HIGH","  41.0000000000000000"],["CDISCPILOT01","1015","01-701-1015","Placebo",0,"Placebo",0,"2014-01-02","2014-07-02",63,"<65",1,"WHITE",1,"F","Y","","Y","Week 20",20.0,140.0,"2014-05-21","WEEK 20","11.000000000000000","Aspartate Aminotransferase (U/L)","AST",25.0,"CHEM","  19.0000000000000000"," 40.0000000000000000"," -21.00000000000000000","  9.000000000000000"," 34.000000000000000"," 2.1111111111111112","0.5588235294117647"," 4.4444444444444446","1.1764705882352942","Y","  32.000000000000000","N","N","","",232.0,"NORMAL","  19.0000000000000000"],["CDISCPILOT01","1015","01-701-1015","Placebo",0,"Placebo",0,"2014-01-02","2014-07-02",63,"<65",1,"WHITE",1,"F","Y","","Y","Week 6",6.0,42.0,"2014-02-12","WEEK 6"," 7.000000000000000","Bilirubin (umol/L)","BILI",21.0,"CHEM","   5.1299999999999999"," 10.2599999999999998","  -5.12999999999999989","  3.000000000000000"," 21.000000000000000"," 1.7100000000000000","0.2442857142857143"," 3.4199999999999999","0.4885714285714285","Y","  26.370000000000001","N","N","","",109.0,"NORMAL","   5.1299999999999999"],["CDISCPILOT01","1015","01-701-1015","Placebo",0,"Placebo",0,"2014-01-02","2014-07-02",63,"<65",1,"WHITE",1,"F","Y","","Y","Week 4",4.0,29.0,"2014-01-30","WEEK 4"," 5.000000000000000","Blood Urea Nitrogen (mmol/L)","BUN",26.0,"CHEM","   2.8559999999999999","  3.5699999999999998","  -0.71399999999999997","  1.400000000000000","  8.600000000000000"," 2.0400000000000000","0.3320930232558140"," 2.5500000000000003","0.4151162790697674","Y","  10.043999999999999","N","N","","",80.0,"NORMAL","   2.8559999999999999"],["CDISCPILOT01","1015","01-701-1015","Placebo",0,"Placebo",0,"2014-01-02","2014-07-02",63,"<65",1,"WHITE",1,"F","Y","","Y","Week 20",20.0,140.0,"2014-05-21","WEEK 20","11.000000000000000","Calcium (mmol/L)","CA",30.0,"CHEM","   2.1706500000000002","  2.1956000000000002","  -0.02495000000000003","  2.100000000000000","  2.570000000000000"," 1.0336428571428571","0.8446108949416343"," 1.0455238095238095","0.8543190661478600","Y","   1.684349999999999","N","N","","",236.0,"NORMAL","   2.1706500000000002"],["CDISCPILOT01","1015","01-701-1015","Placebo",0,"Placebo",0,"2014-01-02","2014-07-02",63,"<65",1,"WHITE",1,"F","Y","","Y","Week 4",4.0,29.0,"2014-01-30","WEEK 4"," 5.000000000000000","Cholesterol (mmol/L)","CHOL",34.0,"CHEM","   4.9909800000000004","  5.9478000000000000","  -0.95681999999999956","  4.029999999999999","  7.760000000000000"," 1.2384565756823824","0.6431675257731959"," 1.4758808933002483","0.7664690721649484","Y","   6.649020000000000","N","N","","",82.0,"NORMAL","   4.9909800000000004"],["CDISCPILOT01","1015","01-701-1015","Placebo",0,"Placebo",0,"2014-01-02","2014-07-02",63,"<65",1,"WHITE",1,"F","Y","","Y","Week 24",24.0,168.0,"2014-06-18","WEEK 24","12.000000000000000","Creatine Kinase (U/L)","CK",35.0,"CHEM","  42.0000000000000000"," 70.0000000000000000"," -28.00000000000000000"," 21.000000000000000","169.000000000000000"," 2.0000000000000000","0.2485207100591716"," 3.3333333333333335","0.4142011834319527","Y"," 211.500000000000000","N","N","","Y",268.0,"NORMAL","  42.0000000000000000"],["CDISCPILOT01","1015","01-701-1015","Placebo",0,"Placebo",0,"2014-01-02","2014-07-02",63,"<65",1,"WHITE",1,"F","Y","","Y","End of Treatment",99.0,168.0,"2014-06-18","WEEK 24","12.000000000000000","Creatine Kinase (U/L)","CK",35.0,"CHEM","  42.0000000000000000"," 70.0000000000000000"," -28.00000000000000000"," 21.000000000000000","169.000000000000000"," 2.0000000000000000","0.2485207100591716"," 3.3333333333333335","0.4142011834319527","Y"," 211.500000000000000","N","N","","Y",268.0,"NORMAL","  42.0000000000000000"],["CDISCPILOT01","1015","01-701-1015","Placebo",0,"Placebo",0,"2014-01-02","2014-07-02",63,"<65",1,"WHITE",1,"F","Y","","Y","Week 12",12.0,84.0,"2014-03-26","WEEK 12"," 9.000000000000000","Chloride (mmol/L)","CL",20.0,"CHEM","  99.0000000000000000","106.0000000000000000","  -7.00000000000000000"," 94.000000000000000","112.000000000000000"," 1.0531914893617020","0.8839285714285714"," 1.1276595744680851","0.9464285714285714","Y","  69.000000000000000","N","N","","",174.0,"NORMAL","  99.0000000000000000"],["CDISCPILOT01","1015","01-701-1015","Placebo",0,"Placebo",0,"2014-01-02","2014-07-02",63,"<65",1,"WHITE",1,"F","Y","","Y","Week 4",4.0,29.0,"2014-01-30","WEEK 4"," 5.000000000000000","Creatinine (umol/L)","CREAT",27.0,"CHEM","  70.7199999999999989"," 79.5599999999999881","  -8.83999999999998920"," 62.000000000000000","124.000000000000000"," 1.1406451612903226","0.5703225806451613"," 1.2832258064516127","0.6416129032258063","Y"," 115.280000000000001","N","N","","",85.0,"NORMAL","  70.7199999999999989"],["CDISCPILOT01","1015","01-701-1015","Placebo",0,"Placebo",0,"2014-01-02","2014-07-02",63,"<65",1,"WHITE",1,"F","Y","","Y","Week 6",6.0,42.0,"2014-02-12","WEEK 6"," 7.000000000000000","Gamma Glutamyl Transferase (U/L)","GGT",23.0,"CHEM","  14.0000000000000000"," 15.0000000000000000","  -1.00000000000000000","  5.000000000000000"," 50.000000000000000"," 2.7999999999999998","0.2800000000000000"," 3.0000000000000000","0.3000000000000000","Y","  61.000000000000000","N","N","","",117.0,"NORMAL","  14.0000000000000000"],["CDISCPILOT01","1015","01-701-1015","Placebo",0,"Placebo",0,"2014-01-02","2014-07-02",63,"<65",1,"WHITE",1,"F","Y","","Y","Week 4",4.0,29.0,"2014-01-30","WEEK 4"," 5.000000000000000","Glucose (mmol/L)","GLUC",31.0,"CHEM","   4.3852899999999986","  4.7183500000000000","  -0.33306000000000147","  2.800000000000000"," 13.899999999999999"," 1.5661749999999997","0.3154884892086330"," 1.6851250000000002","0.3394496402877698","Y","  16.464710000000000","N","N","","",88.0,"NORMAL","   4.3852899999999986"],["CDISCPILOT01","1015","01-701-1015","Placebo",0,"Placebo",0,"2014-01-02","2014-07-02",63,"<65",1,"WHITE",1,"F","Y","","Y","Week 12",12.0,84.0,"2014-03-26","WEEK 12"," 9.000000000000000","Potassium (mmol/L)","K",19.0,"CHEM","   3.6000000000000001","  4.5000000000000000","  -0.89999999999999991","  3.400000000000000","  5.399999999999999"," 1.0588235294117647","0.6666666666666667"," 1.3235294117647058","0.8333333333333334","Y","   4.500000000000000","N","N","","",182.0,"NORMAL","   3.6000000000000001"],["CDISCPILOT01","1015","01-701-1015","Placebo",0,"Placebo",0,"2014-01-02","2014-07-02",63,"<65",1,"WHITE",1,"F","Y","","Y","Week 20",20.0,140.0,"2014-05-21","WEEK 20","11.000000000000000","Phosphate (mmol/L)","PHOS",29.0,"CHEM","   1.0978600000000001","  1.2270200000000000","  -0.12915999999999994","  0.710000000000000","  1.650000000000000"," 1.5462816901408452","0.6653696969696971"," 1.7281971830985916","0.7436484848484849","Y","   1.377140000000000","N","N","","",253.0,"NORMAL","   1.0978600000000001"],["CDISCPILOT01","1015","01-701-1015","Placebo",0,"Placebo",0,"2014-01-02","2014-07-02",63,"<65",1,"WHITE",1,"F","Y","","Y","Week 24",24.0,168.0,"2014-06-18","WEEK 24","12.000000000000000","Protein (g/L)","PROT",32.0,"CHEM","  66.0000000000000000"," 61.0000000000000000","   5.00000000000000000"," 60.000000000000000"," 80.000000000000000"," 1.1000000000000001","0.8250000000000000"," 1.0166666666666666","0.7625000000000000","Y","  54.000000000000000","N","N","","Y",288.0,"NORMAL","  66.0000000000000000"],["CDISCPILOT01","1015","01-701-1015","Placebo",0,"Placebo",0,"2014-01-02","2014-07-02",63,"<65",1,"WHITE",1,"F","Y","","Y","End of Treatment",99.0,168.0,"2014-06-18","WEEK 24","12.000000000000000","Protein (g/L)","PROT",32.0,"CHEM","  66.0000000000000000"," 61.0000000000000000","   5.00000000000000000"," 60.000000000000000"," 80.000000000000000"," 1.1000000000000001","0.8250000000000000"," 1.0166666666666666","0.7625000000000000","Y","  54.000000000000000","N","N","","Y",288.0,"NORMAL","  66.0000000000000000"],["CDISCPILOT01","1015","01-701-1015","Placebo",0,"Placebo",0,"2014-01-02","2014-07-02",63,"<65",1,"WHITE",1,"F","Y","","Y","Week 12",12.0,84.0,"2014-03-26","WEEK 12"," 9.000000000000000","Sodium (mmol/L)","SODIUM",18.0,"CHEM"," 139.0000000000000000","140.0000000000000000","  -1.00000000000000000","135.000000000000000","145.000000000000000"," 1.0296296296296297","0.9586206896551724"," 1.0370370370370370","0.9655172413793104","Y","  78.500000000000000","N","N","","",189.0,"NORMAL"," 139.0000000000000000"],["CDISCPILOT01","1015","01-701-1015","Placebo",0,"Placebo",0,"2014-01-02","2014-07-02",63,"<65",1,"WHITE",1,"F","Y","","Y","Week 16",16.0,126.0,"2014-05-07","WEEK 16","10.000000000000000","Urate (umol/L)","URATE",28.0,"CHEM"," 255.7640000000000100","267.6600000000000250"," -11.89600000000001501","149.000000000000000","446.000000000000000"," 1.7165369127516779","0.5734618834080718"," 1.7963758389261746","0.6001345291479822","Y"," 413.235999999999990","N","N","","",227.0,"NORMAL"," 255.7640000000000100"],["CDISCPILOT01","1023","01-701-1023","Placebo",0,"Placebo",0,"2012-08-05","2012-09-01",64,"<65",1,"WHITE",1,"M","N","Y","Y","Week 4",4.0,29.0,"2012-09-02","WEEK 4"," 5.000000000000000","Albumin (g/L)","ALB",33.0,"CHEM","  35.0000000000000000"," 40.0000000000000000","  -5.00000000000000000"," 33.000000000000000"," 49.000000000000000"," 1.0606060606060606","0.7142857142857143"," 1.2121212121212122","0.8163265306122449","Y","  38.500000000000000","N","N","","Y",73.0,"NORMAL","  35.0000000000000000"],["CDISCPILOT01","1023","01-701-1023","Placebo",0,"Placebo",0,"2012-08-05","2012-09-01",64,"<65",1,"WHITE",1,"M","N","Y","Y","End of Treatment",99.0,29.0,"2012-09-02","WEEK 4"," 5.000000000000000","Albumin (g/L)","ALB",33.0,"CHEM","  35.0000000000000000"," 40.0000000000000000","  -5.00000000000000000"," 33.000000000000000"," 49.000000000000000"," 1.0606060606060606","0.7142857142857143"," 1.2121212121212122","0.8163265306122449","Y","  38.500000000000000","N","N","","Y",73.0,"NORMAL","  35.0000000000000000"],["CDISCPILOT01","1023","01-701-1023","Placebo",0,"Placebo",0,"2012-08-05","2012-09-01",64,"<65",1,"WHITE",1,"M","N","Y","Y","Week 2",2.0,23.0,"2012-08-27","WEEK 2"," 4.000000000000000","Alkaline Phosphatase (U/L)","ALP",22.0,"CHEM","  90.0000000000000000"," 98.0000000000000000","  -8.00000000000000000"," 35.000000000000000","115.000000000000000"," 2.5714285714285716","0.7826086956521739"," 2.7999999999999998","0.8521739130434782","Y","  82.500000000000000","N","N","","",39.0,"NORMAL","  90.0000000000000000"],["CDISCPILOT01","1023","01-701-1023","Placebo",0,"Placebo",0,"2012-08-05","2012-09-01",64,"<65",1,"WHITE",1,"M","N","Y","Y","Week 4",4.0,29.0,"2012-09-02","WEEK 4"," 5.000000000000000","Alanine Aminotransferase (U/L)","ALT",24.0,"CHEM","  38.0000000000000000"," 23.0000000000000000","  15.00000000000000000","  6.000000000000000"," 43.000000000000000"," 6.3333333333333330","0.8837209302325582"," 3.8333333333333335","0.5348837209302325","Y","  35.000000000000000","N","N","","Y",75.0,"NORMAL","  38.0000000000000000"],["CDISCPILOT01","1023","01-701-1023","Placebo",0,"Placebo",0,"2012-08-05","2012-09-01",64,"<65",1,"WHITE",1,"M","N","Y","Y","End of Treatment",99.0,29.0,"2012-09-02","WEEK 4"," 5.000000000000000","Alanine Aminotransferase (U/L)","ALT",24.0,"CHEM","  38.0000000000000000"," 23.0000000000000000","  15.00000000000000000","  6.000000000000000"," 43.000000000000000"," 6.3333333333333330","0.8837209302325582"," 3.8333333333333335","0.5348837209302325","Y","  35.000000000000000","N","N","","Y",75.0,"NORMAL","  38.0000000000000000"],["CDISCPILOT01","1023","01-701-1023","Placebo",0,"Placebo",0,"2012-08-05","2012-09-01",64,"<65",1,"WHITE",1,"M","N","Y","Y","Week 2",2.0,23.0,"2012-08-27","WEEK 2"," 4.000000000000000","Aspartate Aminotransferase (U/L)","AST",25.0,"CHEM","  25.0000000000000000"," 21.0000000000000000","   4.00000000000000000"," 11.000000000000000"," 36.000000000000000"," 2.2727272727272729","0.6944444444444444"," 1.9090909090909092","0.5833333333333334","Y","  29.000000000000000","N","N","","",41.0,"NORMAL","  25.0000000000000000"],["CDISCPILOT01","1023","01-701-1023","Placebo",0,"Placebo",0,"2012-08-05","2012-09-01",64,"<65",1,"WHITE",1,"M","N","Y","Y","Week 2",2.0,23.0,"2012-08-27","WEEK 2"," 4.000000000000000","Bilirubin (umol/L)","BILI",21.0,"CHEM","   6.8399999999999999"," 11.9700000000000006","  -5.13000000000000078","  3.000000000000000"," 21.000000000000000"," 2.2799999999999998","0.3257142857142857"," 3.9900000000000002","0.5700000000000001","Y","  24.660000000000000","N","N","","",43.0,"NORMAL","   6.8399999999999999"],["CDISCPILOT01","1023","01-701-1023","Placebo",0,"Placebo",0,"2012-08-05","2012-09-01",64,"<65",1,"WHITE",1,"M","N","Y","Y","Week 4",4.0,29.0,"2012-09-02","WEEK 4"," 5.000000000000000","Blood Urea Nitrogen (mmol/L)","BUN",26.0,"CHEM","   6.0690000000000000","  6.4259999999999993","  -0.35699999999999932","  1.400000000000000","  8.600000000000000"," 4.3350000000000000","0.7056976744186046"," 4.5899999999999999","0.7472093023255814","Y","   6.830999999999999","N","N","","Y",79.0,"NORMAL","   6.0690000000000000"],["CDISCPILOT01","1023","01-701-1023","Placebo",0,"Placebo",0,"2012-08-05","2012-09-01",64,"<65",1,"WHITE",1,"M","N","Y","Y","End of Treatment",99.0,29.0,"2012-09-02","WEEK 4"," 5.000000000000000","Blood Urea Nitrogen (mmol/L)","BUN",26.0,"CHEM","   6.0690000000000000","  6.4259999999999993","  -0.35699999999999932","  1.400000000000000","  8.600000000000000"," 4.3350000000000000","0.7056976744186046"," 4.5899999999999999","0.7472093023255814","Y","   6.830999999999999","N","N","","Y",79.0,"NORMAL","   6.0690000000000000"],["CDISCPILOT01","1023","01-701-1023","Placebo",0,"Placebo",0,"2012-08-05","2012-09-01",64,"<65",1,"WHITE",1,"M","N","Y","Y","Week 2",2.0,23.0,"2012-08-27","WEEK 2"," 4.000000000000000","Calcium (mmol/L)","CA",30.0,"CHEM","   2.3452999999999999","  2.4700500000000001","  -0.12475000000000014","  2.100000000000000","  2.570000000000000"," 1.1168095238095237","0.9125680933852141"," 1.1762142857142857","0.9611089494163425","Y","   1.509700000000000","N","N","","",45.0,"NORMAL","   2.3452999999999999"],["CDISCPILOT01","1023","01-701-1023","Placebo",0,"Placebo",0,"2012-08-05","2012-09-01",64,"<65",1,"WHITE",1,"M","N","Y","Y","Week 4",4.0,29.0,"2012-09-02","WEEK 4"," 5.000000000000000","Cholesterol (mmol/L)","CHOL",34.0,"CHEM","   6.0770999999999997","  6.7753199999999998","  -0.69822000000000006","  3.850000000000000","  7.399999999999999"," 1.5784675324675324","0.8212297297297297"," 1.7598233766233766","0.9155837837837838","Y","   5.022900000000000","N","N","","Y",81.0,"NORMAL","   6.0770999999999997"],["CDISCPILOT01","1023","01-701-1023","Placebo",0,"Placebo",0,"2012-08-05","2012-09-01",64,"<65",1,"WHITE",1,"M","N","Y","Y","End of Treatment",99.0,29.0,"2012-09-02","WEEK 4"," 5.000000000000000","Cholesterol (mmol/L)","CHOL",34.0,"CHEM","   6.0770999999999997","  6.7753199999999998","  -0.69822000000000006","  3.850000000000000","  7.399999999999999"," 1.5784675324675324","0.8212297297297297"," 1.7598233766233766","0.9155837837837838","Y","   5.022900000000000","N","N","","Y",81.0,"NORMAL","   6.0770999999999997"],["CDISCPILOT01","1023","01-701-1023","Placebo",0,"Placebo",0,"2012-08-05","2012-09-01",64,"<65",1,"WHITE",1,"M","N","Y","Y","Week 4",4.0,29.0,"2012-09-02","WEEK 4"," 5.000000000000000","Creatine Kinase (U/L)","CK",35.0,"CHEM","  76.0000000000000000"," 85.0000000000000000","  -9.00000000000000000"," 22.000000000000000","198.000000000000000"," 3.4545454545454546","0.3838383838383838"," 3.8636363636363638","0.4292929292929293","Y"," 221.000000000000000","N","N","","Y",82.0,"NORMAL","  76.0000000000000000"],["CDISCPILOT01","1023","01-701-1023","Placebo",0,"Placebo",0,"2012-08-05","2012-09-01",64,"<65",1,"WHITE",1,"M","N","Y","Y","End of Treatment",99.0,29.0,"2012-09-02","WEEK 4"," 5.000000000000000","Creatine Kinase (U/L)","CK",35.0,"CHEM","  76.0000000000000000"," 85.0000000000000000","  -9.00000000000000000"," 22.000000000000000","198.000000000000000"," 3.4545454545454546","0.3838383838383838"," 3.8636363636363638","0.4292929292929293","Y"," 221.000000000000000","N","N","","Y",82.0,"NORMAL","  76.0000000000000000"],["CDISCPILOT01","1023","01-701-1023","Placebo",0,"Placebo",0,"2012-08-05","2012-09-01",64,"<65",1,"WHITE",1,"M","N","Y","Y","Week 4",4.0,29.0,"2012-09-02","WEEK 4"," 5.000000000000000","Chloride (mmol/L)","CL",20.0,"CHEM"," 106.0000000000000000","106.0000000000000000","   0.00000000000000000"," 94.000000000000000","112.000000000000000"," 1.1276595744680851","0.9464285714285714"," 1.1276595744680851","0.9464285714285714","Y","  62.000000000000000","N","N","","Y",83.0,"NORMAL"," 106.0000000000000000"],["CDISCPILOT01","1023","01-701-1023","Placebo",0,"Placebo",0,"2012-08-05","2012-09-01",64,"<65",1,"WHITE",1,"M","N","Y","Y","End of Treatment",99.0,29.0,"2012-09-02","WEEK 4"," 5.000000000000000","Chloride (mmol/L)","CL",20.0,"CHEM"," 106.0000000000000000","106.0000000000000000","   0.00000000000000000"," 94.000000000000000","112.000000000000000"," 1.1276595744680851","0.9464285714285714"," 1.1276595744680851","0.9464285714285714","Y","  62.000000000000000","N","N","","Y",83.0,"NORMAL"," 106.0000000000000000"],["CDISCPILOT01","1023","01-701-1023","Placebo",0,"Placebo",0,"2012-08-05","2012-09-01",64,"<65",1,"WHITE",1,"M","N","Y","Y","Week 2",2.0,23.0,"2012-08-27","WEEK 2"," 4.000000000000000","Creatinine (umol/L)","CREAT",27.0,"CHEM"," 132.5999999999999943","123.7600000000000051","   8.83999999999998920"," 71.000000000000000","141.000000000000000"," 1.8676056338028169","0.9404255319148935"," 1.7430985915492958","0.8777304964539008","Y","  97.099999999999994","N","N","","",50.0,"NORMAL"," 132.5999999999999943"],["CDISCPILOT01","1023","01-701-1023","Placebo",0,"Placebo",0,"2012-08-05","2012-09-01",64,"<65",1,"WHITE",1,"M","N","Y","Y","Week 2",2.0,23.0,"2012-08-27","WEEK 2"," 4.000000000000000","Gamma Glutamyl Transferase (U/L)","GGT",23.0,"CHEM","  22.0000000000000000"," 18.0000000000000000","   4.00000000000000000"," 10.000000000000000"," 50.000000000000000"," 2.2000000000000002","0.4400000000000000"," 1.8000000000000000","0.3600000000000000","Y","  53.000000000000000","N","N","","",52.0,"NORMAL","  22.0000000000000000"],["CDISCPILOT01","1023","01-701-1023","Placebo",0,"Placebo",0,"2012-08-05","2012-09-01",64,"<65",1,"WHITE",1,"M","N","Y","Y","Week 4",4.0,29.0,"2012-09-02","WEEK 4"," 5.000000000000000","Glucose (mmol/L)","GLUC",31.0,"CHEM","   5.4399799999999994","  5.3289599999999986","   0.11102000000000078","  2.800000000000000"," 13.899999999999999"," 1.9428500000000000","0.3913654676258993"," 1.9031999999999996","0.3833784172661870","Y","  15.410019999999999","N","N","","Y",88.0,"NORMAL","   5.4399799999999994"],["CDISCPILOT01","1023","01-701-1023","Placebo",0,"Placebo",0,"2012-08-05","2012-09-01",64,"<65",1,"WHITE",1,"M","N","Y","Y","End of Treatment",99.0,29.0,"2012-09-02","WEEK 4"," 5.000000000000000","Glucose (mmol/L)","GLUC",31.0,"CHEM","   5.4399799999999994","  5.3289599999999986","   0.11102000000000078","  2.800000000000000"," 13.899999999999999"," 1.9428500000000000","0.3913654676258993"," 1.9031999999999996","0.3833784172661870","Y","  15.410019999999999","N","N","","Y",88.0,"NORMAL","   5.4399799999999994"],["CDISCPILOT01","1023","01-701-1023","Placebo",0,"Placebo",0,"2012-08-05","2012-09-01",64,"<65",1,"WHITE",1,"M","N","Y","Y","Week 4",4.0,29.0,"2012-09-02","WEEK 4"," 5.000000000000000","Potassium (mmol/L)","K",19.0,"CHEM","   4.6999999999999993","  4.8999999999999986","  -0.19999999999999929","  3.400000000000000","  5.399999999999999"," 1.3823529411764703","0.8703703703703703"," 1.4411764705882348","0.9074074074074072","Y","   3.400000000000000","N","N","","Y",91.0,"NORMAL","   4.6999999999999993"],["CDISCPILOT01","1023","01-701-1023","Placebo",0,"Placebo",0,"2012-08-05","2012-09-01",64,"<65",1,"WHITE",1,"M","N","Y","Y","End of Treatment",99.0,29.0,"2012-09-02","WEEK 4"," 5.000000000000000","Potassium (mmol/L)","K",19.0,"CHEM","   4.6999999999999993","  4.8999999999999986","  -0.19999999999999929","  3.400000000000000","  5.399999999999999"," 1.3823529411764703","0.8703703703703703"," 1.4411764705882348","0.9074074074074072","Y","   3.400000000000000","N","N","","Y",91.0,"NORMAL","   4.6999999999999993"],["CDISCPILOT01","1023","01-701-1023","Placebo",0,"Placebo",0,"2012-08-05","2012-09-01",64,"<65",1,"WHITE",1,"M","N","Y","Y","Week 4",4.0,29.0,"2012-09-02","WEEK 4"," 5.000000000000000","Phosphate (mmol/L)","PHOS",29.0,"CHEM","   1.0978600000000001","  1.2916000000000001","  -0.19374000000000002","  0.710000000000000","  1.650000000000000"," 1.5462816901408452","0.6653696969696971"," 1.8191549295774649","0.7827878787878789","Y","   1.377140000000000","N","N","","Y",100.0,"NORMAL","   1.0978600000000001"],["CDISCPILOT01","1023","01-701-1023","Placebo",0,"Placebo",0,"2012-08-05","2012-09-01",64,"<65",1,"WHITE",1,"M","N","Y","Y","End of Treatment",99.0,29.0,"2012-09-02","WEEK 4"," 5.000000000000000","Phosphate (mmol/L)","PHOS",29.0,"CHEM","   1.0978600000000001","  1.2916000000000001","  -0.19374000000000002","  0.710000000000000","  1.650000000000000"," 1.5462816901408452","0.6653696969696971"," 1.8191549295774649","0.7827878787878789","Y","   1.377140000000000","N","N","","Y",100.0,"NORMAL","   1.0978600000000001"],["CDISCPILOT01","1023","01-701-1023","Placebo",0,"Placebo",0,"2012-08-05","2012-09-01",64,"<65",1,"WHITE",1,"M","N","Y","Y","Week 2",2.0,23.0,"2012-08-27","WEEK 2"," 4.000000000000000","Protein (g/L)","PROT",32.0,"CHEM","  69.0000000000000000"," 74.0000000000000000","  -5.00000000000000000"," 60.000000000000000"," 80.000000000000000"," 1.1499999999999999","0.8625000000000000"," 1.2333333333333334","0.9250000000000000","Y","  51.000000000000000","N","N","","",67.0,"NORMAL","  69.0000000000000000"],["CDISCPILOT01","1023","01-701-1023","Placebo",0,"Placebo",0,"2012-08-05","2012-09-01",64,"<65",1,"WHITE",1,"M","N","Y","Y","Week 2",2.0,23.0,"2012-08-27","WEEK 2"," 4.000000000000000","Sodium (mmol/L)","SODIUM",18.0,"CHEM"," 140.0000000000000000","142.0000000000000000","  -2.00000000000000000","135.000000000000000","145.000000000000000"," 1.0370370370370370","0.9655172413793104"," 1.0518518518518518","0.9793103448275862","Y","  77.500000000000000","N","N","","",63.0,"NORMAL"," 140.0000000000000000"],["CDISCPILOT01","1023","01-701-1023","Placebo",0,"Placebo",0,"2012-08-05","2012-09-01",64,"<65",1,"WHITE",1,"M","N","Y","Y","Week 4",4.0,29.0,"2012-09-02","WEEK 4"," 5.000000000000000","Urate (umol/L)","URATE",28.0,"CHEM"," 362.8279999999999745","398.5160000000000196"," -35.68800000000004502","149.000000000000000","446.000000000000000"," 2.4350872483221475","0.8135156950672645"," 2.6746040268456377","0.8935336322869956","Y"," 306.172000000000025","N","N","","Y",105.0,"NORMAL"," 362.8279999999999745"],["CDISCPILOT01","1023","01-701-1023","Placebo",0,"Placebo",0,"2012-08-05","2012-09-01",64,"<65",1,"WHITE",1,"M","N","Y","Y","End of Treatment",99.0,29.0,"2012-09-02","WEEK 4"," 5.000000000000000","Urate (umol/L)","URATE",28.0,"CHEM"," 362.8279999999999745","398.5160000000000196"," -35.68800000000004502","149.000000000000000","446.000000000000000"," 2.4350872483221475","0.8135156950672645"," 2.6746040268456377","0.8935336322869956","Y"," 306.172000000000025","N","N","","Y",105.0,"NORMAL"," 362.8279999999999745"],["CDISCPILOT01","1028","01-701-1028","Xanomeline High Dose",81,"Xanomeline High Dose",81,"2013-07-19","2014-01-14",71,"65-80",2,"WHITE",1,"M","Y","","Y","Week 16",16.0,111.0,"2013-11-06","WEEK 16","10.000000000000000","Albumin (g/L)","ALB",33.0,"CHEM","  37.0000000000000000"," 44.0000000000000000","  -7.00000000000000000"," 35.000000000000000"," 46.000000000000000"," 1.0571428571428572","0.8043478260869565"," 1.2571428571428571","0.9565217391304348","Y","  32.000000000000000","N","N","","",198.0,"NORMAL","  37.0000000000000000"],["CDISCPILOT01","1028","01-701-1028","Xanomeline High Dose",81,"Xanomeline High Dose",81,"2013-07-19","2014-01-14",71,"65-80",2,"WHITE",1,"M","Y","","Y","Week 16",16.0,111.0,"2013-11-06","WEEK 16","10.000000000000000","Alkaline Phosphatase (U/L)","ALP",22.0,"CHEM","  36.0000000000000000"," 44.0000000000000000","  -8.00000000000000000"," 35.000000000000000","115.000000000000000"," 1.0285714285714285","0.3130434782608696"," 1.2571428571428571","0.3826086956521739","Y"," 136.500000000000000","N","N","","",199.0,"NORMAL","  36.0000000000000000"],["CDISCPILOT01","1028","01-701-1028","Xanomeline High Dose",81,"Xanomeline High Dose",81,"2013-07-19","2014-01-14",71,"65-80",2,"WHITE",1,"M","Y","","Y","Week 20",20.0,139.0,"2013-12-04","WEEK 20","11.000000000000000","Alanine Aminotransferase (U/L)","ALT",24.0,"CHEM","  22.0000000000000000"," 26.0000000000000000","  -4.00000000000000000","  6.000000000000000"," 35.000000000000000"," 3.6666666666666665","0.6285714285714286"," 4.3333333333333330","0.7428571428571429","Y","  30.500000000000000","N","N","","",232.0,"NORMAL","  22.0000000000000000"],["CDISCPILOT01","1028","01-701-1028","Xanomeline High Dose",81,"Xanomeline High Dose",81,"2013-07-19","2014-01-14",71,"65-80",2,"WHITE",1,"M","Y","","Y","Week 16",16.0,111.0,"2013-11-06","WEEK 16","10.000000000000000","Aspartate Aminotransferase (U/L)","AST",25.0,"CHEM","  18.0000000000000000"," 24.0000000000000000","  -6.00000000000000000"," 11.000000000000000"," 36.000000000000000"," 1.6363636363636365","0.5000000000000000"," 2.1818181818181817","0.6666666666666666","Y","  36.000000000000000","N","N","","",202.0,"NORMAL","  18.0000000000000000"],["CDISCPILOT01","1028","01-701-1028","Xanomeline High Dose",81,"Xanomeline High Dose",81,"2013-07-19","2014-01-14",71,"65-80",2,"WHITE",1,"M","Y","","Y","Week 2",2.0,14.0,"2013-08-01","WEEK 2"," 4.000000000000000","Bilirubin (umol/L)","BILI",21.0,"CHEM","  11.9700000000000006"," 18.8099999999999987","  -6.83999999999999808","  3.000000000000000"," 21.000000000000000"," 3.9900000000000002","0.5700000000000001"," 6.2699999999999996","0.8957142857142857","Y","  19.530000000000001","N","N","","",43.0,"NORMAL","  11.9700000000000006"],["CDISCPILOT01","1028","01-701-1028","Xanomeline High Dose",81,"Xanomeline High Dose",81,"2013-07-19","2014-01-14",71,"65-80",2,"WHITE",1,"M","Y","","Y","Week 24",24.0,172.0,"2014-01-06","WEEK 24","12.000000000000000","Blood Urea Nitrogen (mmol/L)","BUN",26.0,"CHEM","   4.6410000000000000","  4.2839999999999998","   0.35700000000000021","  1.400000000000000","  8.600000000000000"," 3.3150000000000004","0.5396511627906977"," 3.0600000000000001","0.4981395348837209","Y","   8.258999999999999","N","N","","Y",267.0,"NORMAL","   4.6410000000000000"],["CDISCPILOT01","1028","01-701-1028","Xanomeline High Dose",81,"Xanomeline High Dose",81,"2013-07-19","2014-01-14",71,"65-80",2,"WHITE",1,"M","Y","","Y","End of Treatment",99.0,172.0,"2014-01-06","WEEK 24","12.000000000000000","Blood Urea Nitrogen (mmol/L)","BUN",26.0,"CHEM","   4.6410000000000000","  4.2839999999999998","   0.35700000000000021","  1.400000000000000","  8.600000000000000"," 3.3150000000000004","0.5396511627906977"," 3.0600000000000001","0.4981395348837209","Y","   8.258999999999999","N","N","","Y",267.0,"NORMAL","   4.6410000000000000"],["CDISCPILOT01","1028","01-701-1028","Xanomeline High Dose",81,"Xanomeline High Dose",81,"2013-07-19","2014-01-14",71,"65-80",2,"WHITE",1,"M","Y","","Y","Week 16",16.0,111.0,"2013-11-06","WEEK 16","10.000000000000000","Calcium (mmol/L)","CA",30.0,"CHEM","   1.9960000000000000","  2.2953999999999999","  -0.29939999999999989","  2.100000000000000","  2.570000000000000"," 0.9504761904761905","0.7766536964980545"," 1.0930476190476190","0.8931517509727627","Y","   1.859000000000000","N","N","","",206.0,"LOW","   1.9960000000000000"],["CDISCPILOT01","1028","01-701-1028","Xanomeline High Dose",81,"Xanomeline High Dose",81,"2013-07-19","2014-01-14",71,"65-80",2,"WHITE",1,"M","Y","","Y","Week 16",16.0,111.0,"2013-11-06","WEEK 16","10.000000000000000","Cholesterol (mmol/L)","CHOL",34.0,"CHEM","   3.9307200000000000","  4.8099599999999993","  -0.87923999999999936","  3.850000000000000","  7.399999999999999"," 1.0209662337662337","0.5311783783783784"," 1.2493402597402596","0.6499945945945945","Y","   7.169280000000000","N","N","","",207.0,"NORMAL","   3.9307200000000000"],["CDISCPILOT01","1028","01-701-1028","Xanomeline High Dose",81,"Xanomeline High Dose",81,"2013-07-19","2014-01-14",71,"65-80",2,"WHITE",1,"M","Y","","Y","Week 8",8.0,54.0,"2013-09-10","WEEK 8"," 8.000000000000000","Creatine Kinase (U/L)","CK",35.0,"CHEM"," 317.0000000000000000","144.0000000000000000"," 173.00000000000000000"," 22.000000000000000","198.000000000000000","14.4090909090909083","1.6010101010101010"," 6.5454545454545459","0.7272727272727273","Y"," 306.000000000000000","H","N","","",142.0,"HIGH"," 317.0000000000000000"],["CDISCPILOT01","1028","01-701-1028","Xanomeline High Dose",81,"Xanomeline High Dose",81,"2013-07-19","2014-01-14",71,"65-80",2,"WHITE",1,"M","Y","","Y","Week 2",2.0,14.0,"2013-08-01","WEEK 2"," 4.000000000000000","Chloride (mmol/L)","CL",20.0,"CHEM"," 103.0000000000000000","103.0000000000000000","   0.00000000000000000"," 94.000000000000000","112.000000000000000"," 1.0957446808510638","0.9196428571428571"," 1.0957446808510638","0.9196428571428571","Y","  65.000000000000000","N","N","","",48.0,"NORMAL"," 103.0000000000000000"],["CDISCPILOT01","1028","01-701-1028","Xanomeline High Dose",81,"Xanomeline High Dose",81,"2013-07-19","2014-01-14",71,"65-80",2,"WHITE",1,"M","Y","","Y","Week 4",4.0,27.0,"2013-08-14","WEEK 4"," 5.000000000000000","Creatinine (umol/L)","CREAT",27.0,"CHEM"," 141.4399999999999977","123.7600000000000051","  17.67999999999999261"," 71.000000000000000","141.000000000000000"," 1.9921126760563379","1.0031205673758865"," 1.7430985915492958","0.8777304964539008","Y"," 105.939999999999998","N","N","","",84.0,"NORMAL"," 141.4399999999999977"],["CDISCPILOT01","1028","01-701-1028","Xanomeline High Dose",81,"Xanomeline High Dose",81,"2013-07-19","2014-01-14",71,"65-80",2,"WHITE",1,"M","Y","","Y","Week 16",16.0,111.0,"2013-11-06","WEEK 16","10.000000000000000","Gamma Glutamyl Transferase (U/L)","GGT",23.0,"CHEM","  19.0000000000000000"," 24.0000000000000000","  -5.00000000000000000"," 10.000000000000000"," 50.000000000000000"," 1.8999999999999999","0.3800000000000000"," 2.3999999999999999","0.4800000000000000","Y","  56.000000000000000","N","N","","",212.0,"NORMAL","  19.0000000000000000"],["CDISCPILOT01","1028","01-701-1028","Xanomeline High Dose",81,"Xanomeline High Dose",81,"2013-07-19","2014-01-14",71,"65-80",2,"WHITE",1,"M","Y","","Y","Week 2",2.0,14.0,"2013-08-01","WEEK 2"," 4.000000000000000","Glucose (mmol/L)","GLUC",31.0,"CHEM","   4.1632499999999997","  4.7738600000000000","  -0.61061000000000032","  2.800000000000000"," 13.899999999999999"," 1.4868749999999999","0.2995143884892086"," 1.7049500000000002","0.3434431654676259","Y","  16.686749999999996","N","N","","",53.0,"NORMAL","   4.1632499999999997"],["CDISCPILOT01","1028","01-701-1028","Xanomeline High Dose",81,"Xanomeline High Dose",81,"2013-07-19","2014-01-14",71,"65-80",2,"WHITE",1,"M","Y","","Y","Week 8",8.0,54.0,"2013-09-10","WEEK 8"," 8.000000000000000","Potassium (mmol/L)","K",19.0,"CHEM","   4.0000000000000000","  4.3999999999999986","  -0.39999999999999858","  3.400000000000000","  5.399999999999999"," 1.1764705882352942","0.7407407407407408"," 1.2941176470588232","0.8148148148148147","Y","   4.100000000000000","N","N","","",150.0,"NORMAL","   4.0000000000000000"],["CDISCPILOT01","1028","01-701-1028","Xanomeline High Dose",81,"Xanomeline High Dose",81,"2013-07-19","2014-01-14",71,"65-80",2,"WHITE",1,"M","Y","","Y","Week 16",16.0,111.0,"2013-11-06","WEEK 16","10.000000000000000","Phosphate (mmol/L)","PHOS",29.0,"CHEM","   0.7749600000000000","  1.0978600000000001","  -0.32290000000000008","  0.710000000000000","  1.650000000000000"," 1.0914929577464789","0.4696727272727273"," 1.5462816901408452","0.6653696969696971","Y","   1.700040000000000","N","N","","",224.0,"NORMAL","   0.7749600000000000"],["CDISCPILOT01","1028","01-701-1028","Xanomeline High Dose",81,"Xanomeline High Dose",81,"2013-07-19","2014-01-14",71,"65-80",2,"WHITE",1,"M","Y","","Y","Week 16",16.0,111.0,"2013-11-06","WEEK 16","10.000000000000000","Protein (g/L)","PROT",32.0,"CHEM","  62.0000000000000000"," 72.0000000000000000"," -10.00000000000000000"," 60.000000000000000"," 80.000000000000000"," 1.0333333333333334","0.7750000000000000"," 1.2000000000000000","0.9000000000000000","Y","  58.000000000000000","N","N","","",226.0,"NORMAL","  62.0000000000000000"],["CDISCPILOT01","1028","01-701-1028","Xanomeline High Dose",81,"Xanomeline High Dose",81,"2013-07-19","2014-01-14",71,"65-80",2,"WHITE",1,"M","Y","","Y","Week 8",8.0,54.0,"2013-09-10","WEEK 8"," 8.000000000000000","Sodium (mmol/L)","SODIUM",18.0,"CHEM"," 136.0000000000000000","139.0000000000000000","  -3.00000000000000000","135.000000000000000","145.000000000000000"," 1.0074074074074073","0.9379310344827586"," 1.0296296296296297","0.9586206896551724","Y","  81.500000000000000","N","N","","",156.0,"NORMAL"," 136.0000000000000000"],["CDISCPILOT01","1028","01-701-1028","Xanomeline High Dose",81,"Xanomeline High Dose",81,"2013-07-19","2014-01-14",71,"65-80",2,"WHITE",1,"M","Y","","Y","Week 16",16.0,111.0,"2013-11-06","WEEK 16","10.000000000000000","Urate (umol/L)","URATE",28.0,"CHEM"," 285.5040000000000191","297.3999999999999773"," -11.89599999999995816","149.000000000000000","446.000000000000000"," 1.9161342281879197","0.6401434977578476"," 1.9959731543624160","0.6668161434977578","Y"," 383.495999999999981","N","N","","",228.0,"NORMAL"," 285.5040000000000191"],["CDISCPILOT01","1033","01-701-1033","Xanomeline Low Dose",54,"Xanomeline Low Dose",54,"2014-03-18","2014-03-31",74,"65-80",2,"WHITE",1,"M","N","","Y","Week 4",4.0,28.0,"2014-04-14","WEEK 4"," 5.000000000000000","Albumin (g/L)","ALB",33.0,"CHEM","  40.0000000000000000"," 38.0000000000000000","   2.00000000000000000"," 35.000000000000000"," 46.000000000000000"," 1.1428571428571428","0.8695652173913043"," 1.0857142857142856","0.8260869565217391","Y","  29.000000000000000","N","N","","Y",73.0,"NORMAL","  40.0000000000000000"],["CDISCPILOT01","1033","01-701-1033","Xanomeline Low Dose",54,"Xanomeline Low Dose",54,"2014-03-18","2014-03-31",74,"65-80",2,"WHITE",1,"M","N","","Y","End of Treatment",99.0,28.0,"2014-04-14","WEEK 4"," 5.000000000000000","Albumin (g/L)","ALB",33.0,"CHEM","  40.0000000000000000"," 38.0000000000000000","   2.00000000000000000"," 35.000000000000000"," 46.000000000000000"," 1.1428571428571428","0.8695652173913043"," 1.0857142857142856","0.8260869565217391","Y","  29.000000000000000","N","N","","Y",73.0,"NORMAL","  40.0000000000000000"],["CDISCPILOT01","1033","01-701-1033","Xanomeline Low Dose",54,"Xanomeline Low Dose",54,"2014-03-18","2014-03-31",74,"65-80",2,"WHITE",1,"M","N","","Y","Week 4",4.0,28.0,"2014-04-14","WEEK 4"," 5.000000000000000","Alkaline Phosphatase (U/L)","ALP",22.0,"CHEM","  76.0000000000000000"," 67.0000000000000000","   9.00000000000000000"," 35.000000000000000","115.000000000000000"," 2.1714285714285713","0.6608695652173913"," 1.9142857142857144","0.5826086956521739","Y","  96.500000000000000","N","N","","Y",74.0,"NORMAL","  76.0000000000000000"],["CDISCPILOT01","1033","01-701-1033","Xanomeline Low Dose",54,"Xanomeline Low Dose",54,"2014-03-18","2014-03-31",74,"65-80",2,"WHITE",1,"M","N","","Y","End of Treatment",99.0,28.0,"2014-04-14","WEEK 4"," 5.000000000000000","Alkaline Phosphatase (U/L)","ALP",22.0,"CHEM","  76.0000000000000000"," 67.0000000000000000","   9.00000000000000000"," 35.000000000000000","115.000000000000000"," 2.1714285714285713","0.6608695652173913"," 1.9142857142857144","0.5826086956521739","Y","  96.500000000000000","N","N","","Y",74.0,"NORMAL","  76.0000000000000000"],["CDISCPILOT01","1033","01-701-1033","Xanomeline Low Dose",54,"Xanomeline Low Dose",54,"2014-03-18","2014-03-31",74,"65-80",2,"WHITE",1,"M","N","","Y","Week 4",4.0,28.0,"2014-04-14","WEEK 4"," 5.000000000000000","Alanine Aminotransferase (U/L)","ALT",24.0,"CHEM","  14.0000000000000000"," 16.0000000000000000","  -2.00000000000000000","  6.000000000000000"," 35.000000000000000"," 2.3333333333333335","0.4000000000000000"," 2.6666666666666665","0.4571428571428571","Y","  38.500000000000000","N","N","","Y",75.0,"NORMAL","  14.0000000000000000"],["CDISCPILOT01","1033","01-701-1033","Xanomeline Low Dose",54,"Xanomeline Low Dose",54,"2014-03-18","2014-03-31",74,"65-80",2,"WHITE",1,"M","N","","Y","End of Treatment",99.0,28.0,"2014-04-14","WEEK 4"," 5.000000000000000","Alanine Aminotransferase (U/L)","ALT",24.0,"CHEM","  14.0000000000000000"," 16.0000000000000000","  -2.00000000000000000","  6.000000000000000"," 35.000000000000000"," 2.3333333333333335","0.4000000000000000"," 2.6666666666666665","0.4571428571428571","Y","  38.500000000000000","N","N","","Y",75.0,"NORMAL","  14.0000000000000000"],["CDISCPILOT01","1033","01-701-1033","Xanomeline Low Dose",54,"Xanomeline Low Dose",54,"2014-03-18","2014-03-31",74,"65-80",2,"WHITE",1,"M","N","","Y","Week 4",4.0,28.0,"2014-04-14","WEEK 4"," 5.000000000000000","Aspartate Aminotransferase (U/L)","AST",25.0,"CHEM","  20.0000000000000000"," 20.0000000000000000","   0.00000000000000000"," 11.000000000000000"," 36.000000000000000"," 1.8181818181818181","0.5555555555555556"," 1.8181818181818181","0.5555555555555556","Y","  34.000000000000000","N","N","","Y",76.0,"NORMAL","  20.0000000000000000"],["CDISCPILOT01","1033","01-701-1033","Xanomeline Low Dose",54,"Xanomeline Low Dose",54,"2014-03-18","2014-03-31",74,"65-80",2,"WHITE",1,"M","N","","Y","End of Treatment",99.0,28.0,"2014-04-14","WEEK 4"," 5.000000000000000","Aspartate Aminotransferase (U/L)","AST",25.0,"CHEM","  20.0000000000000000"," 20.0000000000000000","   0.00000000000000000"," 11.000000000000000"," 36.000000000000000"," 1.8181818181818181","0.5555555555555556"," 1.8181818181818181","0.5555555555555556","Y","  34.000000000000000","N","N","","Y",76.0,"NORMAL","  20.0000000000000000"],["CDISCPILOT01","1033","01-701-1033","Xanomeline Low Dose",54,"Xanomeline Low Dose",54,"2014-03-18","2014-03-31",74,"65-80",2,"WHITE",1,"M","N","","Y","Week 2",2.0,15.0,"2014-04-01","WEEK 2"," 4.000000000000000","Bilirubin (umol/L)","BILI",21.0,"CHEM","   6.8399999999999999"," 13.6799999999999997","  -6.83999999999999986","  3.000000000000000"," 21.000000000000000"," 2.2799999999999998","0.3257142857142857"," 4.5599999999999996","0.6514285714285715","Y","  24.660000000000000","N","N","","",43.0,"NORMAL","   6.8399999999999999"],["CDISCPILOT01","1033","01-701-1033","Xanomeline Low Dose",54,"Xanomeline Low Dose",54,"2014-03-18","2014-03-31",74,"65-80",2,"WHITE",1,"M","N","","Y","Week 2",2.0,15.0,"2014-04-01","WEEK 2"," 4.000000000000000","Blood Urea Nitrogen (mmol/L)","BUN",26.0,"CHEM","   4.6410000000000000","  5.7119999999999997","  -1.07099999999999973","  1.400000000000000","  8.600000000000000"," 3.3150000000000004","0.5396511627906977"," 4.0800000000000001","0.6641860465116279","Y","   8.258999999999999","N","N","","",44.0,"NORMAL","   4.6410000000000000"],["CDISCPILOT01","1033","01-701-1033","Xanomeline Low Dose",54,"Xanomeline Low Dose",54,"2014-03-18","2014-03-31",74,"65-80",2,"WHITE",1,"M","N","","Y","Week 4",4.0,28.0,"2014-04-14","WEEK 4"," 5.000000000000000","Calcium (mmol/L)","CA",30.0,"CHEM","   2.1457000000000002","  2.0708500000000001","   0.07485000000000008","  2.100000000000000","  2.570000000000000"," 1.0217619047619049","0.8349027237354086"," 0.9861190476190476","0.8057782101167316","Y","   1.709299999999999","N","N","","Y",80.0,"NORMAL","   2.1457000000000002"],["CDISCPILOT01","1033","01-701-1033","Xanomeline Low Dose",54,"Xanomeline Low Dose",54,"2014-03-18","2014-03-31",74,"65-80",2,"WHITE",1,"M","N","","Y","End of Treatment",99.0,28.0,"2014-04-14","WEEK 4"," 5.000000000000000","Calcium (mmol/L)","CA",30.0,"CHEM","   2.1457000000000002","  2.0708500000000001","   0.07485000000000008","  2.100000000000000","  2.570000000000000"," 1.0217619047619049","0.8349027237354086"," 0.9861190476190476","0.8057782101167316","Y","   1.709299999999999","N","N","","Y",80.0,"NORMAL","   2.1457000000000002"],["CDISCPILOT01","1033","01-701-1033","Xanomeline Low Dose",54,"Xanomeline Low Dose",54,"2014-03-18","2014-03-31",74,"65-80",2,"WHITE",1,"M","N","","Y","Week 2",2.0,15.0,"2014-04-01","WEEK 2"," 4.000000000000000","Cholesterol (mmol/L)","CHOL",34.0,"CHEM","   5.0944200000000004","  4.9392600000000000","   0.15516000000000041","  3.850000000000000","  7.399999999999999"," 1.3232259740259742","0.6884351351351352"," 1.2829246753246752","0.6674675675675676","Y","   6.005579999999999","N","N","","",46.0,"NORMAL","   5.0944200000000004"],["CDISCPILOT01","1033","01-701-1033","Xanomeline Low Dose",54,"Xanomeline Low Dose",54,"2014-03-18","2014-03-31",74,"65-80",2,"WHITE",1,"M","N","","Y","Week 2",2.0,15.0,"2014-04-01","WEEK 2"," 4.000000000000000","Creatine Kinase (U/L)","CK",35.0,"CHEM","  93.0000000000000000","114.0000000000000000"," -21.00000000000000000"," 22.000000000000000","198.000000000000000"," 4.2272727272727275","0.4696969696969697"," 5.1818181818181817","0.5757575757575758","Y"," 204.000000000000000","N","N","","",47.0,"NORMAL","  93.0000000000000000"],["CDISCPILOT01","1033","01-701-1033","Xanomeline Low Dose",54,"Xanomeline Low Dose",54,"2014-03-18","2014-03-31",74,"65-80",2,"WHITE",1,"M","N","","Y","Week 4",4.0,28.0,"2014-04-14","WEEK 4"," 5.000000000000000","Chloride (mmol/L)","CL",20.0,"CHEM"," 105.0000000000000000","107.0000000000000000","  -2.00000000000000000"," 94.000000000000000","112.000000000000000"," 1.1170212765957446","0.9375000000000000"," 1.1382978723404256","0.9553571428571429","Y","  63.000000000000000","N","N","","Y",83.0,"NORMAL"," 105.0000000000000000"],["CDISCPILOT01","1033","01-701-1033","Xanomeline Low Dose",54,"Xanomeline Low Dose",54,"2014-03-18","2014-03-31",74,"65-80",2,"WHITE",1,"M","N","","Y","End of Treatment",99.0,28.0,"2014-04-14","WEEK 4"," 5.000000000000000","Chloride (mmol/L)","CL",20.0,"CHEM"," 105.0000000000000000","107.0000000000000000","  -2.00000000000000000"," 94.000000000000000","112.000000000000000"," 1.1170212765957446","0.9375000000000000"," 1.1382978723404256","0.9553571428571429","Y","  63.000000000000000","N","N","","Y",83.0,"NORMAL"," 105.0000000000000000"],["CDISCPILOT01","1033","01-701-1033","Xanomeline Low Dose",54,"Xanomeline Low Dose",54,"2014-03-18","2014-03-31",74,"65-80",2,"WHITE",1,"M","N","","Y","Week 2",2.0,15.0,"2014-04-01","WEEK 2"," 4.000000000000000","Creatinine (umol/L)","CREAT",27.0,"CHEM"," 132.5999999999999943","132.5999999999999943","   0.00000000000000000"," 71.000000000000000","141.000000000000000"," 1.8676056338028169","0.9404255319148935"," 1.8676056338028169","0.9404255319148935","Y","  97.099999999999994","N","N","","",50.0,"NORMAL"," 132.5999999999999943"],["CDISCPILOT01","1033","01-701-1033","Xanomeline Low Dose",54,"Xanomeline Low Dose",54,"2014-03-18","2014-03-31",74,"65-80",2,"WHITE",1,"M","N","","Y","Week 4",4.0,28.0,"2014-04-14","WEEK 4"," 5.000000000000000","Gamma Glutamyl Transferase (U/L)","GGT",23.0,"CHEM","  21.0000000000000000"," 21.0000000000000000","   0.00000000000000000"," 10.000000000000000"," 50.000000000000000"," 2.1000000000000001","0.4200000000000000"," 2.1000000000000001","0.4200000000000000","Y","  54.000000000000000","N","N","","Y",87.0,"NORMAL","  21.0000000000000000"],["CDISCPILOT01","1033","01-701-1033","Xanomeline Low Dose",54,"Xanomeline Low Dose",54,"2014-03-18","2014-03-31",74,"65-80",2,"WHITE",1,"M","N","","Y","End of Treatment",99.0,28.0,"2014-04-14","WEEK 4"," 5.000000000000000","Gamma Glutamyl Transferase (U/L)","GGT",23.0,"CHEM","  21.0000000000000000"," 21.0000000000000000","   0.00000000000000000"," 10.000000000000000"," 50.000000000000000"," 2.1000000000000001","0.4200000000000000"," 2.1000000000000001","0.4200000000000000","Y","  54.000000000000000","N","N","","Y",87.0,"NORMAL","  21.0000000000000000"],["CDISCPILOT01","1033","01-701-1033","Xanomeline Low Dose",54,"Xanomeline Low Dose",54,"2014-03-18","2014-03-31",74,"65-80",2,"WHITE",1,"M","N","","Y","Week 4",4.0,28.0,"2014-04-14","WEEK 4"," 5.000000000000000","Glucose (mmol/L)","GLUC",31.0,"CHEM","   5.4399799999999994","  4.9958999999999998","   0.44407999999999959","  2.800000000000000"," 13.899999999999999"," 1.9428500000000000","0.3913654676258993"," 1.7842500000000001","0.3594172661870504","Y","  15.410019999999999","N","N","","Y",88.0,"NORMAL","   5.4399799999999994"],["CDISCPILOT01","1033","01-701-1033","Xanomeline Low Dose",54,"Xanomeline Low Dose",54,"2014-03-18","2014-03-31",74,"65-80",2,"WHITE",1,"M","N","","Y","End of Treatment",99.0,28.0,"2014-04-14","WEEK 4"," 5.000000000000000","Glucose (mmol/L)","GLUC",31.0,"CHEM","   5.4399799999999994","  4.9958999999999998","   0.44407999999999959","  2.800000000000000"," 13.899999999999999"," 1.9428500000000000","0.3913654676258993"," 1.7842500000000001","0.3594172661870504","Y","  15.410019999999999","N","N","","Y",88.0,"NORMAL","   5.4399799999999994"],["CDISCPILOT01","1033","01-701-1033","Xanomeline Low Dose",54,"Xanomeline Low Dose",54,"2014-03-18","2014-03-31",74,"65-80",2,"WHITE",1,"M","N","","Y","Week 4",4.0,28.0,"2014-04-14","WEEK 4"," 5.000000000000000","Potassium (mmol/L)","K",19.0,"CHEM","   3.8999999999999999","  4.0999999999999996","  -0.19999999999999973","  3.400000000000000","  5.399999999999999"," 1.1470588235294117","0.7222222222222223"," 1.2058823529411764","0.7592592592592593","Y","   4.199999999999999","N","N","","Y",91.0,"NORMAL","   3.8999999999999999"],["CDISCPILOT01","1033","01-701-1033","Xanomeline Low Dose",54,"Xanomeline Low Dose",54,"2014-03-18","2014-03-31",74,"65-80",2,"WHITE",1,"M","N","","Y","End of Treatment",99.0,28.0,"2014-04-14","WEEK 4"," 5.000000000000000","Potassium (mmol/L)","K",19.0,"CHEM","   3.8999999999999999","  4.0999999999999996","  -0.19999999999999973","  3.400000000000000","  5.399999999999999"," 1.1470588235294117","0.7222222222222223"," 1.2058823529411764","0.7592592592592593","Y","   4.199999999999999","N","N","","Y",91.0,"NORMAL","   3.8999999999999999"],["CDISCPILOT01","1033","01-701-1033","Xanomeline Low Dose",54,"Xanomeline Low Dose",54,"2014-03-18","2014-03-31",74,"65-80",2,"WHITE",1,"M","N","","Y","Week 2",2.0,15.0,"2014-04-01","WEEK 2"," 4.000000000000000","Phosphate (mmol/L)","PHOS",29.0,"CHEM","   1.0655699999999999","  1.2270200000000000","  -0.16145000000000009","  0.710000000000000","  1.650000000000000"," 1.5008028169014085","0.6457999999999999"," 1.7281971830985916","0.7436484848484849","Y","   1.409430000000000","N","N","","",65.0,"NORMAL","   1.0655699999999999"],["CDISCPILOT01","1033","01-701-1033","Xanomeline Low Dose",54,"Xanomeline Low Dose",54,"2014-03-18","2014-03-31",74,"65-80",2,"WHITE",1,"M","N","","Y","Week 4",4.0,28.0,"2014-04-14","WEEK 4"," 5.000000000000000","Protein (g/L)","PROT",32.0,"CHEM","  72.0000000000000000"," 73.0000000000000000","  -1.00000000000000000"," 60.000000000000000"," 80.000000000000000"," 1.2000000000000000","0.9000000000000000"," 1.2166666666666666","0.9125000000000000","Y","  48.000000000000000","N","N","","Y",102.0,"NORMAL","  72.0000000000000000"],["CDISCPILOT01","1033","01-701-1033","Xanomeline Low Dose",54,"Xanomeline Low Dose",54,"2014-03-18","2014-03-31",74,"65-80",2,"WHITE",1,"M","N","","Y","End of Treatment",99.0,28.0,"2014-04-14","WEEK 4"," 5.000000000000000","Protein (g/L)","PROT",32.0,"CHEM","  72.0000000000000000"," 73.0000000000000000","  -1.00000000000000000"," 60.000000000000000"," 80.000000000000000"," 1.2000000000000000","0.9000000000000000"," 1.2166666666666666","0.9125000000000000","Y","  48.000000000000000","N","N","","Y",102.0,"NORMAL","  72.0000000000000000"],["CDISCPILOT01","1033","01-701-1033","Xanomeline Low Dose",54,"Xanomeline Low Dose",54,"2014-03-18","2014-03-31",74,"65-80",2,"WHITE",1,"M","N","","Y","Week 2",2.0,15.0,"2014-04-01","WEEK 2"," 4.000000000000000","Sodium (mmol/L)","SODIUM",18.0,"CHEM"," 140.0000000000000000","145.0000000000000000","  -5.00000000000000000","135.000000000000000","145.000000000000000"," 1.0370370370370370","0.9655172413793104"," 1.0740740740740742","1.0000000000000000","Y","  77.500000000000000","N","N","","",63.0,"NORMAL"," 140.0000000000000000"],["CDISCPILOT01","1033","01-701-1033","Xanomeline Low Dose",54,"Xanomeline Low Dose",54,"2014-03-18","2014-03-31",74,"65-80",2,"WHITE",1,"M","N","","Y","Week 4",4.0,28.0,"2014-04-14","WEEK 4"," 5.000000000000000","Urate (umol/L)","URATE",28.0,"CHEM"," 463.9440000000000168","428.2559999999999718","  35.68800000000004502","149.000000000000000","446.000000000000000"," 3.1137181208053692","1.0402331838565022"," 2.8742013422818791","0.9602152466367713","Y"," 389.444000000000017","N","N","","Y",105.0,"HIGH"," 463.9440000000000168"],["CDISCPILOT01","1033","01-701-1033","Xanomeline Low Dose",54,"Xanomeline Low Dose",54,"2014-03-18","2014-03-31",74,"65-80",2,"WHITE",1,"M","N","","Y","End of Treatment",99.0,28.0,"2014-04-14","WEEK 4"," 5.000000000000000","Urate (umol/L)","URATE",28.0,"CHEM"," 463.9440000000000168","428.2559999999999718","  35.68800000000004502","149.000000000000000","446.000000000000000"," 3.1137181208053692","1.0402331838565022"," 2.8742013422818791","0.9602152466367713","Y"," 389.444000000000017","N","N","","Y",105.0,"HIGH"," 463.9440000000000168"],["CDISCPILOT01","1034","01-701-1034","Xanomeline High Dose",81,"Xanomeline High Dose",81,"2014-07-01","2014-12-30",77,"65-80",2,"WHITE",1,"F","Y","","Y","Week 6",6.0,42.0,"2014-08-11","WEEK 6"," 7.000000000000000","Albumin (g/L)","ALB",33.0,"CHEM","  38.0000000000000000"," 43.0000000000000000","  -5.00000000000000000"," 35.000000000000000"," 46.000000000000000"," 1.0857142857142856","0.8260869565217391"," 1.2285714285714286","0.9347826086956522","Y","  31.000000000000000","N","N","","",106.0,"NORMAL","  38.0000000000000000"],["CDISCPILOT01","1034","01-701-1034","Xanomeline High Dose",81,"Xanomeline High Dose",81,"2014-07-01","2014-12-30",77,"65-80",2,"WHITE",1,"F","Y","","Y","Week 8",8.0,57.0,"2014-08-26","WEEK 8"," 8.000000000000000","Alkaline Phosphatase (U/L)","ALP",22.0,"CHEM","  29.0000000000000000"," 41.0000000000000000"," -12.00000000000000000"," 35.000000000000000","115.000000000000000"," 0.8285714285714286","0.2521739130434782"," 1.1714285714285715","0.3565217391304348","Y"," 143.500000000000000","N","N","","",138.0,"LOW","  29.0000000000000000"],["CDISCPILOT01","1034","01-701-1034","Xanomeline High Dose",81,"Xanomeline High Dose",81,"2014-07-01","2014-12-30",77,"65-80",2,"WHITE",1,"F","Y","","Y","Week 6",6.0,42.0,"2014-08-11","WEEK 6"," 7.000000000000000","Alanine Aminotransferase (U/L)","ALT",24.0,"CHEM","  15.0000000000000000"," 15.0000000000000000","   0.00000000000000000","  6.000000000000000"," 32.000000000000000"," 2.5000000000000000","0.4687500000000000"," 2.5000000000000000","0.4687500000000000","Y","  33.000000000000000","N","N","","",108.0,"NORMAL","  15.0000000000000000"],["CDISCPILOT01","1034","01-701-1034","Xanomeline High Dose",81,"Xanomeline High Dose",81,"2014-07-01","2014-12-30",77,"65-80",2,"WHITE",1,"F","Y","","Y","Week 24",24.0,170.0,"2014-12-17","WEEK 24","12.000000000000000","Aspartate Aminotransferase (U/L)","AST",25.0,"CHEM","  17.0000000000000000"," 23.0000000000000000","  -6.00000000000000000","  9.000000000000000"," 34.000000000000000"," 1.8888888888888888","0.5000000000000000"," 2.5555555555555554","0.6764705882352942","Y","  34.000000000000000","N","N","","Y",267.0,"NORMAL","  17.0000000000000000"],["CDISCPILOT01","1034","01-701-1034","Xanomeline High Dose",81,"Xanomeline High Dose",81,"2014-07-01","2014-12-30",77,"65-80",2,"WHITE",1,"F","Y","","Y","End of Treatment",99.0,170.0,"2014-12-17","WEEK 24","12.000000000000000","Aspartate Aminotransferase (U/L)","AST",25.0,"CHEM","  17.0000000000000000"," 23.0000000000000000","  -6.00000000000000000","  9.000000000000000"," 34.000000000000000"," 1.8888888888888888","0.5000000000000000"," 2.5555555555555554","0.6764705882352942","Y","  34.000000000000000","N","N","","Y",267.0,"NORMAL","  17.0000000000000000"],["CDISCPILOT01","1034","01-701-1034","Xanomeline High Dose",81,"Xanomeline High Dose",81,"2014-07-01","2014-12-30",77,"65-80",2,"WHITE",1,"F","Y","","Y","Week 20",20.0,141.0,"2014-11-18","WEEK 20","11.000000000000000","Bilirubin (umol/L)","BILI",21.0,"CHEM","   5.1299999999999999"," 10.2599999999999998","  -5.12999999999999989","  3.000000000000000"," 21.000000000000000"," 1.7100000000000000","0.2442857142857143"," 3.4199999999999999","0.4885714285714285","Y","  26.370000000000001","N","N","","",238.0,"NORMAL","   5.1299999999999999"],["CDISCPILOT01","1034","01-701-1034","Xanomeline High Dose",81,"Xanomeline High Dose",81,"2014-07-01","2014-12-30",77,"65-80",2,"WHITE",1,"F","Y","","Y","Week 2",2.0,15.0,"2014-07-15","WEEK 2"," 4.000000000000000","Blood Urea Nitrogen (mmol/L)","BUN",26.0,"CHEM","   4.2839999999999998","  4.2839999999999998","   0.00000000000000000","  1.400000000000000","  8.600000000000000"," 3.0600000000000001","0.4981395348837209"," 3.0600000000000001","0.4981395348837209","Y","   8.616000000000000","N","N","","",45.0,"NORMAL","   4.2839999999999998"],["CDISCPILOT01","1034","01-701-1034","Xanomeline High Dose",81,"Xanomeline High Dose",81,"2014-07-01","2014-12-30",77,"65-80",2,"WHITE",1,"F","Y","","Y","Week 2",2.0,15.0,"2014-07-15","WEEK 2"," 4.000000000000000","Calcium (mmol/L)","CA",30.0,"CHEM","   2.5698500000000002","  2.5449000000000002","   0.02495000000000003","  2.100000000000000","  2.570000000000000"," 1.2237380952380952","0.9999416342412453"," 1.2118571428571430","0.9902334630350196","Y","   1.519850000000000","N","N","","",46.0,"NORMAL","   2.5698500000000002"],["CDISCPILOT01","1034","01-701-1034","Xanomeline High Dose",81,"Xanomeline High Dose",81,"2014-07-01","2014-12-30",77,"65-80",2,"WHITE",1,"F","Y","","Y","Week 6",6.0,42.0,"2014-08-11","WEEK 6"," 7.000000000000000","Cholesterol (mmol/L)","CHOL",34.0,"CHEM","   5.7667799999999998","  7.7062799999999996","  -1.93949999999999978","  4.029999999999999","  7.760000000000000"," 1.4309627791563277","0.7431417525773196"," 1.9122282878411914","0.9930773195876288","Y","   5.873220000000001","N","N","","",115.0,"NORMAL","   5.7667799999999998"],["CDISCPILOT01","1034","01-701-1034","Xanomeline High Dose",81,"Xanomeline High Dose",81,"2014-07-01","2014-12-30",77,"65-80",2,"WHITE",1,"F","Y","","Y","Week 2",2.0,15.0,"2014-07-15","WEEK 2"," 4.000000000000000","Creatine Kinase (U/L)","CK",35.0,"CHEM","  50.0000000000000000"," 65.0000000000000000"," -15.00000000000000000"," 21.000000000000000","169.000000000000000"," 2.3809523809523809","0.2958579881656805"," 3.0952380952380953","0.3846153846153846","Y"," 203.500000000000000","N","N","","",48.0,"NORMAL","  50.0000000000000000"],["CDISCPILOT01","1034","01-701-1034","Xanomeline High Dose",81,"Xanomeline High Dose",81,"2014-07-01","2014-12-30",77,"65-80",2,"WHITE",1,"F","Y","","Y","Week 24",24.0,170.0,"2014-12-17","WEEK 24","12.000000000000000","Chloride (mmol/L)","CL",20.0,"CHEM","  98.0000000000000000","100.0000000000000000","  -2.00000000000000000"," 94.000000000000000","112.000000000000000"," 1.0425531914893618","0.8750000000000000"," 1.0638297872340425","0.8928571428571429","Y","  70.000000000000000","N","N","","Y",274.0,"NORMAL","  98.0000000000000000"],["CDISCPILOT01","1034","01-701-1034","Xanomeline High Dose",81,"Xanomeline High Dose",81,"2014-07-01","2014-12-30",77,"65-80",2,"WHITE",1,"F","Y","","Y","End of Treatment",99.0,170.0,"2014-12-17","WEEK 24","12.000000000000000","Chloride (mmol/L)","CL",20.0,"CHEM","  98.0000000000000000","100.0000000000000000","  -2.00000000000000000"," 94.000000000000000","112.000000000000000"," 1.0425531914893618","0.8750000000000000"," 1.0638297872340425","0.8928571428571429","Y","  70.000000000000000","N","N","","Y",274.0,"NORMAL","  98.0000000000000000"],["CDISCPILOT01","1034","01-701-1034","Xanomeline High Dose",81,"Xanomeline High Dose",81,"2014-07-01","2014-12-30",77,"65-80",2,"WHITE",1,"F","Y","","Y","Week 4",4.0,29.0,"2014-07-29","WEEK 4"," 5.000000000000000","Creatinine (umol/L)","CREAT",27.0,"CHEM","  79.5599999999999881"," 88.3999999999999915","  -8.84000000000000341"," 62.000000000000000","124.000000000000000"," 1.2832258064516127","0.6416129032258063"," 1.4258064516129030","0.7129032258064515","Y"," 106.440000000000012","N","N","","",87.0,"NORMAL","  79.5599999999999881"],["CDISCPILOT01","1034","01-701-1034","Xanomeline High Dose",81,"Xanomeline High Dose",81,"2014-07-01","2014-12-30",77,"65-80",2,"WHITE",1,"F","Y","","Y","Week 12",12.0,87.0,"2014-09-25","WEEK 12"," 9.000000000000000","Gamma Glutamyl Transferase (U/L)","GGT",23.0,"CHEM","  14.0000000000000000"," 20.0000000000000000","  -6.00000000000000000","  5.000000000000000"," 50.000000000000000"," 2.7999999999999998","0.2800000000000000"," 4.0000000000000000","0.4000000000000000","Y","  61.000000000000000","N","N","","",181.0,"NORMAL","  14.0000000000000000"],["CDISCPILOT01","1034","01-701-1034","Xanomeline High Dose",81,"Xanomeline High Dose",81,"2014-07-01","2014-12-30",77,"65-80",2,"WHITE",1,"F","Y","","Y","Week 4",4.0,29.0,"2014-07-29","WEEK 4"," 5.000000000000000","Glucose (mmol/L)","GLUC",31.0,"CHEM","   4.6073299999999993","  4.4963099999999994","   0.11101999999999990","  2.800000000000000"," 13.899999999999999"," 1.6454749999999998","0.3314625899280575"," 1.6058249999999998","0.3234755395683453","Y","  16.242669999999997","N","N","","",90.0,"NORMAL","   4.6073299999999993"],["CDISCPILOT01","1034","01-701-1034","Xanomeline High Dose",81,"Xanomeline High Dose",81,"2014-07-01","2014-12-30",77,"65-80",2,"WHITE",1,"F","Y","","Y","Week 6",6.0,42.0,"2014-08-11","WEEK 6"," 7.000000000000000","Potassium (mmol/L)","K",19.0,"CHEM","   4.0999999999999996","  4.3999999999999986","  -0.29999999999999893","  3.400000000000000","  5.399999999999999"," 1.2058823529411764","0.7592592592592593"," 1.2941176470588232","0.8148148148148147","Y","   4.000000000000000","N","N","","",124.0,"NORMAL","   4.0999999999999996"],["CDISCPILOT01","1034","01-701-1034","Xanomeline High Dose",81,"Xanomeline High Dose",81,"2014-07-01","2014-12-30",77,"65-80",2,"WHITE",1,"F","Y","","Y","Week 6",6.0,42.0,"2014-08-11","WEEK 6"," 7.000000000000000","Phosphate (mmol/L)","PHOS",29.0,"CHEM","   1.1624399999999999","  1.3561799999999999","  -0.19374000000000002","  0.710000000000000","  1.650000000000000"," 1.6372394366197183","0.7045090909090909"," 1.9101126760563381","0.8219272727272727","Y","   1.312560000000000","N","N","","",131.0,"NORMAL","   1.1624399999999999"],["CDISCPILOT01","1034","01-701-1034","Xanomeline High Dose",81,"Xanomeline High Dose",81,"2014-07-01","2014-12-30",77,"65-80",2,"WHITE",1,"F","Y","","Y","Week 6",6.0,42.0,"2014-08-11","WEEK 6"," 7.000000000000000","Protein (g/L)","PROT",32.0,"CHEM","  69.0000000000000000"," 75.0000000000000000","  -6.00000000000000000"," 60.000000000000000"," 80.000000000000000"," 1.1499999999999999","0.8625000000000000"," 1.2500000000000000","0.9375000000000000","Y","  51.000000000000000","N","N","","",133.0,"NORMAL","  69.0000000000000000"],["CDISCPILOT01","1034","01-701-1034","Xanomeline High Dose",81,"Xanomeline High Dose",81,"2014-07-01","2014-12-30",77,"65-80",2,"WHITE",1,"F","Y","","Y","Week 24",24.0,170.0,"2014-12-17","WEEK 24","12.000000000000000","Sodium (mmol/L)","SODIUM",18.0,"CHEM"," 134.0000000000000000","138.0000000000000000","  -4.00000000000000000","135.000000000000000","145.000000000000000"," 0.9925925925925926","0.9241379310344827"," 1.0222222222222221","0.9517241379310345","Y","  83.500000000000000","N","N","","Y",290.0,"LOW"," 134.0000000000000000"],["CDISCPILOT01","1034","01-701-1034","Xanomeline High Dose",81,"Xanomeline High Dose",81,"2014-07-01","2014-12-30",77,"65-80",2,"WHITE",1,"F","Y","","Y","End of Treatment",99.0,170.0,"2014-12-17","WEEK 24","12.000000000000000","Sodium (mmol/L)","SODIUM",18.0,"CHEM"," 134.0000000000000000","138.0000000000000000","  -4.00000000000000000","135.000000000000000","145.000000000000000"," 0.9925925925925926","0.9241379310344827"," 1.0222222222222221","0.9517241379310345","Y","  83.500000000000000","N","N","","Y",290.0,"LOW"," 134.0000000000000000"],["CDISCPILOT01","1034","01-701-1034","Xanomeline High Dose",81,"Xanomeline High Dose",81,"2014-07-01","2014-12-30",77,"65-80",2,"WHITE",1,"F","Y","","Y","Week 24",24.0,170.0,"2014-12-17","WEEK 24","12.000000000000000","Urate (umol/L)","URATE",28.0,"CHEM"," 291.4519999999999982","309.2959999999999923"," -17.84399999999999409","149.000000000000000","446.000000000000000"," 1.9560536912751678","0.6534798206278026"," 2.0758120805369127","0.6934887892376681","Y"," 377.548000000000002","N","N","","Y",297.0,"NORMAL"," 291.4519999999999982"],["CDISCPILOT01","1034","01-701-1034","Xanomeline High Dose",81,"Xanomeline High Dose",81,"2014-07-01","2014-12-30",77,"65-80",2,"WHITE",1,"F","Y","","Y","End of Treatment",99.0,170.0,"2014-12-17","WEEK 24","12.000000000000000","Urate (umol/L)","URATE",28.0,"CHEM"," 291.4519999999999982","309.2959999999999923"," -17.84399999999999409","149.000000000000000","446.000000000000000"," 1.9560536912751678","0.6534798206278026"," 2.0758120805369127","0.6934887892376681","Y"," 377.548000000000002","N","N","","Y",297.0,"NORMAL"," 291.4519999999999982"],["CDISCPILOT01","1047","01-701-1047","Placebo",0,"Placebo",0,"2013-02-12","2013-03-09",85,">80",3,"WHITE",1,"F","N","Y","Y","Week 2",2.0,14.0,"2013-02-25","WEEK 2"," 4.000000000000000","Albumin (g/L)","ALB",33.0,"CHEM","  38.0000000000000000"," 42.0000000000000000","  -4.00000000000000000"," 35.000000000000000"," 46.000000000000000"," 1.0857142857142856","0.8260869565217391"," 1.2000000000000000","0.9130434782608695","Y","  31.000000000000000","N","N","","",38.0,"NORMAL","  38.0000000000000000"],["CDISCPILOT01","1047","01-701-1047","Placebo",0,"Placebo",0,"2013-02-12","2013-03-09",85,">80",3,"WHITE",1,"F","N","Y","Y","Week 2",2.0,14.0,"2013-02-25","WEEK 2"," 4.000000000000000","Alkaline Phosphatase (U/L)","ALP",22.0,"CHEM","  67.0000000000000000"," 78.0000000000000000"," -11.00000000000000000"," 35.000000000000000","115.000000000000000"," 1.9142857142857144","0.5826086956521739"," 2.2285714285714286","0.6782608695652174","Y"," 105.500000000000000","N","N","","",39.0,"NORMAL","  67.0000000000000000"],["CDISCPILOT01","1047","01-701-1047","Placebo",0,"Placebo",0,"2013-02-12","2013-03-09",85,">80",3,"WHITE",1,"F","N","Y","Y","Week 2",2.0,14.0,"2013-02-25","WEEK 2"," 4.000000000000000","Alanine Aminotransferase (U/L)","ALT",24.0,"CHEM","  16.0000000000000000"," 22.0000000000000000","  -6.00000000000000000","  6.000000000000000"," 32.000000000000000"," 2.6666666666666665","0.5000000000000000"," 3.6666666666666665","0.6875000000000000","Y","  32.000000000000000","N","N","","",40.0,"NORMAL","  16.0000000000000000"],["CDISCPILOT01","1047","01-701-1047","Placebo",0,"Placebo",0,"2013-02-12","2013-03-09",85,">80",3,"WHITE",1,"F","N","Y","Y","Week 2",2.0,14.0,"2013-02-25","WEEK 2"," 4.000000000000000","Aspartate Aminotransferase (U/L)","AST",25.0,"CHEM","  21.0000000000000000"," 25.0000000000000000","  -4.00000000000000000","  9.000000000000000"," 34.000000000000000"," 2.3333333333333335","0.6176470588235294"," 2.7777777777777777","0.7352941176470589","Y","  30.000000000000000","N","N","","",41.0,"NORMAL","  21.0000000000000000"],["CDISCPILOT01","1047","01-701-1047","Placebo",0,"Placebo",0,"2013-02-12","2013-03-09",85,">80",3,"WHITE",1,"F","N","Y","Y","Week 4",4.0,27.0,"2013-03-10","WEEK 4"," 5.000000000000000","Bilirubin (umol/L)","BILI",21.0,"CHEM","   6.8399999999999999","  6.8399999999999999","   0.00000000000000000","  3.000000000000000"," 21.000000000000000"," 2.2799999999999998","0.3257142857142857"," 2.2799999999999998","0.3257142857142857","Y","  24.660000000000000","N","N","","Y",78.0,"NORMAL","   6.8399999999999999"],["CDISCPILOT01","1047","01-701-1047","Placebo",0,"Placebo",0,"2013-02-12","2013-03-09",85,">80",3,"WHITE",1,"F","N","Y","Y","End of Treatment",99.0,27.0,"2013-03-10","WEEK 4"," 5.000000000000000","Bilirubin (umol/L)","BILI",21.0,"CHEM","   6.8399999999999999","  6.8399999999999999","   0.00000000000000000","  3.000000000000000"," 21.000000000000000"," 2.2799999999999998","0.3257142857142857"," 2.2799999999999998","0.3257142857142857","Y","  24.660000000000000","N","N","","Y",78.0,"NORMAL","   6.8399999999999999"],["CDISCPILOT01","1047","01-701-1047","Placebo",0,"Placebo",0,"2013-02-12","2013-03-09",85,">80",3,"WHITE",1,"F","N","Y","Y","Week 2",2.0,14.0,"2013-02-25","WEEK 2"," 4.000000000000000","Blood Urea Nitrogen (mmol/L)","BUN",26.0,"CHEM","   6.4259999999999993","  6.4259999999999993","   0.00000000000000000","  1.400000000000000","  8.600000000000000"," 4.5899999999999999","0.7472093023255814"," 4.5899999999999999","0.7472093023255814","Y","   6.473999999999999","N","N","","",44.0,"NORMAL","   6.4259999999999993"],["CDISCPILOT01","1047","01-701-1047","Placebo",0,"Placebo",0,"2013-02-12","2013-03-09",85,">80",3,"WHITE",1,"F","N","Y","Y","Week 4",4.0,27.0,"2013-03-10","WEEK 4"," 5.000000000000000","Calcium (mmol/L)","CA",30.0,"CHEM","   2.1207500000000001","  2.2953999999999999","  -0.17464999999999975","  2.100000000000000","  2.570000000000000"," 1.0098809523809524","0.8251945525291829"," 1.0930476190476190","0.8931517509727627","Y","   1.734249999999999","N","N","","Y",80.0,"NORMAL","   2.1207500000000001"],["CDISCPILOT01","1047","01-701-1047","Placebo",0,"Placebo",0,"2013-02-12","2013-03-09",85,">80",3,"WHITE",1,"F","N","Y","Y","End of Treatment",99.0,27.0,"2013-03-10","WEEK 4"," 5.000000000000000","Calcium (mmol/L)","CA",30.0,"CHEM","   2.1207500000000001","  2.2953999999999999","  -0.17464999999999975","  2.100000000000000","  2.570000000000000"," 1.0098809523809524","0.8251945525291829"," 1.0930476190476190","0.8931517509727627","Y","   1.734249999999999","N","N","","Y",80.0,"NORMAL","   2.1207500000000001"],["CDISCPILOT01","1047","01-701-1047","Placebo",0,"Placebo",0,"2013-02-12","2013-03-09",85,">80",3,"WHITE",1,"F","N","Y","Y","Week 4",4.0,27.0,"2013-03-10","WEEK 4"," 5.000000000000000","Cholesterol (mmol/L)","CHOL",34.0,"CHEM","   4.7065199999999994","  6.0770999999999997","  -1.37058000000000035","  4.029999999999999","  7.760000000000000"," 1.1678709677419354","0.6065103092783505"," 1.5079652605459060","0.7831314432989691","Y","   6.933480000000001","N","N","","Y",81.0,"NORMAL","   4.7065199999999994"],["CDISCPILOT01","1047","01-701-1047","Placebo",0,"Placebo",0,"2013-02-12","2013-03-09",85,">80",3,"WHITE",1,"F","N","Y","Y","End of Treatment",99.0,27.0,"2013-03-10","WEEK 4"," 5.000000000000000","Cholesterol (mmol/L)","CHOL",34.0,"CHEM","   4.7065199999999994","  6.0770999999999997","  -1.37058000000000035","  4.029999999999999","  7.760000000000000"," 1.1678709677419354","0.6065103092783505"," 1.5079652605459060","0.7831314432989691","Y","   6.933480000000001","N","N","","Y",81.0,"NORMAL","   4.7065199999999994"],["CDISCPILOT01","1047","01-701-1047","Placebo",0,"Placebo",0,"2013-02-12","2013-03-09",85,">80",3,"WHITE",1,"F","N","Y","Y","Week 4",4.0,27.0,"2013-03-10","WEEK 4"," 5.000000000000000","Creatine Kinase (U/L)","CK",35.0,"CHEM","  77.0000000000000000"," 90.0000000000000000"," -13.00000000000000000"," 21.000000000000000","169.000000000000000"," 3.6666666666666665","0.4556213017751479"," 4.2857142857142856","0.5325443786982249","Y"," 176.500000000000000","N","N","","Y",82.0,"NORMAL","  77.0000000000000000"],["CDISCPILOT01","1047","01-701-1047","Placebo",0,"Placebo",0,"2013-02-12","2013-03-09",85,">80",3,"WHITE",1,"F","N","Y","Y","End of Treatment",99.0,27.0,"2013-03-10","WEEK 4"," 5.000000000000000","Creatine Kinase (U/L)","CK",35.0,"CHEM","  77.0000000000000000"," 90.0000000000000000"," -13.00000000000000000"," 21.000000000000000","169.000000000000000"," 3.6666666666666665","0.4556213017751479"," 4.2857142857142856","0.5325443786982249","Y"," 176.500000000000000","N","N","","Y",82.0,"NORMAL","  77.0000000000000000"],["CDISCPILOT01","1047","01-701-1047","Placebo",0,"Placebo",0,"2013-02-12","2013-03-09",85,">80",3,"WHITE",1,"F","N","Y","Y","Week 2",2.0,14.0,"2013-02-25","WEEK 2"," 4.000000000000000","Chloride (mmol/L)","CL",20.0,"CHEM"," 109.0000000000000000","105.0000000000000000","   4.00000000000000000"," 94.000000000000000","112.000000000000000"," 1.1595744680851063","0.9732142857142857"," 1.1170212765957446","0.9375000000000000","Y","  62.000000000000000","N","N","","",48.0,"NORMAL"," 109.0000000000000000"],["CDISCPILOT01","1047","01-701-1047","Placebo",0,"Placebo",0,"2013-02-12","2013-03-09",85,">80",3,"WHITE",1,"F","N","Y","Y","Week 4",4.0,27.0,"2013-03-10","WEEK 4"," 5.000000000000000","Creatinine (umol/L)","CREAT",27.0,"CHEM","  79.5599999999999881"," 88.3999999999999915","  -8.84000000000000341"," 62.000000000000000","124.000000000000000"," 1.2832258064516127","0.6416129032258063"," 1.4258064516129030","0.7129032258064515","Y"," 106.440000000000012","N","N","","Y",84.0,"NORMAL","  79.5599999999999881"],["CDISCPILOT01","1047","01-701-1047","Placebo",0,"Placebo",0,"2013-02-12","2013-03-09",85,">80",3,"WHITE",1,"F","N","Y","Y","End of Treatment",99.0,27.0,"2013-03-10","WEEK 4"," 5.000000000000000","Creatinine (umol/L)","CREAT",27.0,"CHEM","  79.5599999999999881"," 88.3999999999999915","  -8.84000000000000341"," 62.000000000000000","124.000000000000000"," 1.2832258064516127","0.6416129032258063"," 1.4258064516129030","0.7129032258064515","Y"," 106.440000000000012","N","N","","Y",84.0,"NORMAL","  79.5599999999999881"],["CDISCPILOT01","1047","01-701-1047","Placebo",0,"Placebo",0,"2013-02-12","2013-03-09",85,">80",3,"WHITE",1,"F","N","Y","Y","Week 2",2.0,14.0,"2013-02-25","WEEK 2"," 4.000000000000000","Gamma Glutamyl Transferase (U/L)","GGT",23.0,"CHEM","  12.0000000000000000"," 14.0000000000000000","  -2.00000000000000000","  5.000000000000000"," 50.000000000000000"," 2.3999999999999999","0.2400000000000000"," 2.7999999999999998","0.2800000000000000","Y","  63.000000000000000","N","N","","",52.0,"NORMAL","  12.0000000000000000"],["CDISCPILOT01","1047","01-701-1047","Placebo",0,"Placebo",0,"2013-02-12","2013-03-09",85,">80",3,"WHITE",1,"F","N","Y","Y","Week 2",2.0,14.0,"2013-02-25","WEEK 2"," 4.000000000000000","Glucose (mmol/L)","GLUC",31.0,"CHEM","   5.5509999999999993","  5.5509999999999993","   0.00000000000000000","  2.800000000000000"," 13.899999999999999"," 1.9824999999999999","0.3993525179856115"," 1.9824999999999999","0.3993525179856115","Y","  15.298999999999999","N","N","","",53.0,"NORMAL","   5.5509999999999993"],["CDISCPILOT01","1047","01-701-1047","Placebo",0,"Placebo",0,"2013-02-12","2013-03-09",85,">80",3,"WHITE",1,"F","N","Y","Y","Week 2",2.0,14.0,"2013-02-25","WEEK 2"," 4.000000000000000","Potassium (mmol/L)","K",19.0,"CHEM","   3.8999999999999999","  4.2999999999999998","  -0.39999999999999991","  3.400000000000000","  5.399999999999999"," 1.1470588235294117","0.7222222222222223"," 1.2647058823529411","0.7962962962962964","Y","   4.199999999999999","N","N","","",56.0,"NORMAL","   3.8999999999999999"],["CDISCPILOT01","1047","01-701-1047","Placebo",0,"Placebo",0,"2013-02-12","2013-03-09",85,">80",3,"WHITE",1,"F","N","Y","Y","Week 2",2.0,14.0,"2013-02-25","WEEK 2"," 4.000000000000000","Phosphate (mmol/L)","PHOS",29.0,"CHEM","   0.9687000000000000","  1.3238900000000000","  -0.35519000000000001","  0.710000000000000","  1.650000000000000"," 1.3643661971830987","0.5870909090909091"," 1.8646338028169016","0.8023575757575758","Y","   1.506300000000000","N","N","","",65.0,"NORMAL","   0.9687000000000000"],["CDISCPILOT01","1047","01-701-1047","Placebo",0,"Placebo",0,"2013-02-12","2013-03-09",85,">80",3,"WHITE",1,"F","N","Y","Y","Week 2",2.0,14.0,"2013-02-25","WEEK 2"," 4.000000000000000","Protein (g/L)","PROT",32.0,"CHEM","  63.0000000000000000"," 69.0000000000000000","  -6.00000000000000000"," 60.000000000000000"," 80.000000000000000"," 1.0500000000000000","0.7875000000000000"," 1.1499999999999999","0.8625000000000000","Y","  57.000000000000000","N","N","","",67.0,"NORMAL","  63.0000000000000000"],["CDISCPILOT01","1047","01-701-1047","Placebo",0,"Placebo",0,"2013-02-12","2013-03-09",85,">80",3,"WHITE",1,"F","N","Y","Y","Week 2",2.0,14.0,"2013-02-25","WEEK 2"," 4.000000000000000","Sodium (mmol/L)","SODIUM",18.0,"CHEM"," 141.0000000000000000","144.0000000000000000","  -3.00000000000000000","135.000000000000000","145.000000000000000"," 1.0444444444444445","0.9724137931034482"," 1.0666666666666667","0.9931034482758621","Y","  76.500000000000000","N","N","","",63.0,"NORMAL"," 141.0000000000000000"],["CDISCPILOT01","1047","01-701-1047","Placebo",0,"Placebo",0,"2013-02-12","2013-03-09",85,">80",3,"WHITE",1,"F","N","Y","Y","Week 4",4.0,27.0,"2013-03-10","WEEK 4"," 5.000000000000000","Urate (umol/L)","URATE",28.0,"CHEM"," 255.7640000000000100","231.9720000000000084","  23.79200000000000159","149.000000000000000","446.000000000000000"," 1.7165369127516779","0.5734618834080718"," 1.5568590604026846","0.5201165919282511","Y"," 413.235999999999990","N","N","","Y",101.0,"NORMAL"," 255.7640000000000100"],["CDISCPILOT01","1047","01-701-1047","Placebo",0,"Placebo",0,"2013-02-12","2013-03-09",85,">80",3,"WHITE",1,"F","N","Y","Y","End of Treatment",99.0,27.0,"2013-03-10","WEEK 4"," 5.000000000000000","Urate (umol/L)","URATE",28.0,"CHEM"," 255.7640000000000100","231.9720000000000084","  23.79200000000000159","149.000000000000000","446.000000000000000"," 1.7165369127516779","0.5734618834080718"," 1.5568590604026846","0.5201165919282511","Y"," 413.235999999999990","N","N","","Y",101.0,"NORMAL"," 255.7640000000000100"],["CDISCPILOT01","1097","01-701-1097","Xanomeline Low Dose",54,"Xanomeline Low Dose",54,"2014-01-01","2014-07-09",68,"65-80",2,"WHITE",1,"M","Y","","Y","Week 20",20.0,141.0,"2014-05-21","WEEK 20","11.000000000000000","Albumin (g/L)","ALB",33.0,"CHEM","  39.0000000000000000"," 43.0000000000000000","  -4.00000000000000000"," 33.000000000000000"," 49.000000000000000"," 1.1818181818181819","0.7959183673469388"," 1.3030303030303030","0.8775510204081632","Y","  34.500000000000000","N","N","","",228.0,"NORMAL","  39.0000000000000000"],["CDISCPILOT01","1097","01-701-1097","Xanomeline Low Dose",54,"Xanomeline Low Dose",54,"2014-01-01","2014-07-09",68,"65-80",2,"WHITE",1,"M","Y","","Y","Week 6",6.0,42.0,"2014-02-11","WEEK 6"," 7.000000000000000","Alkaline Phosphatase (U/L)","ALP",22.0,"CHEM","  48.0000000000000000"," 56.0000000000000000","  -8.00000000000000000"," 35.000000000000000","115.000000000000000"," 1.3714285714285714","0.4173913043478261"," 1.6000000000000001","0.4869565217391305","Y"," 124.500000000000000","N","N","","",104.0,"NORMAL","  48.0000000000000000"],["CDISCPILOT01","1097","01-701-1097","Xanomeline Low Dose",54,"Xanomeline Low Dose",54,"2014-01-01","2014-07-09",68,"65-80",2,"WHITE",1,"M","Y","","Y","Week 20",20.0,141.0,"2014-05-21","WEEK 20","11.000000000000000","Alanine Aminotransferase (U/L)","ALT",24.0,"CHEM","  11.0000000000000000"," 16.0000000000000000","  -5.00000000000000000","  6.000000000000000"," 43.000000000000000"," 1.8333333333333333","0.2558139534883721"," 2.6666666666666665","0.3720930232558139","Y","  53.500000000000000","N","N","","",230.0,"NORMAL","  11.0000000000000000"],["CDISCPILOT01","1097","01-701-1097","Xanomeline Low Dose",54,"Xanomeline Low Dose",54,"2014-01-01","2014-07-09",68,"65-80",2,"WHITE",1,"M","Y","","Y","Week 4",4.0,29.0,"2014-01-29","WEEK 4"," 5.000000000000000","Aspartate Aminotransferase (U/L)","AST",25.0,"CHEM","  16.0000000000000000"," 19.0000000000000000","  -3.00000000000000000"," 11.000000000000000"," 36.000000000000000"," 1.4545454545454546","0.4444444444444444"," 1.7272727272727273","0.5277777777777778","Y","  38.000000000000000","N","N","","",76.0,"NORMAL","  16.0000000000000000"],["CDISCPILOT01","1097","01-701-1097","Xanomeline Low Dose",54,"Xanomeline Low Dose",54,"2014-01-01","2014-07-09",68,"65-80",2,"WHITE",1,"M","Y","","Y","Week 20",20.0,141.0,"2014-05-21","WEEK 20","11.000000000000000","Bilirubin (umol/L)","BILI",21.0,"CHEM","   5.1299999999999999","  6.8399999999999999","  -1.70999999999999996","  3.000000000000000"," 21.000000000000000"," 1.7100000000000000","0.2442857142857143"," 2.2799999999999998","0.3257142857142857","Y","  26.370000000000001","N","N","","",233.0,"NORMAL","   5.1299999999999999"],["CDISCPILOT01","1097","01-701-1097","Xanomeline Low Dose",54,"Xanomeline Low Dose",54,"2014-01-01","2014-07-09",68,"65-80",2,"WHITE",1,"M","Y","","Y","Week 2",2.0,15.0,"2014-01-15","WEEK 2"," 4.000000000000000","Blood Urea Nitrogen (mmol/L)","BUN",26.0,"CHEM","   8.5679999999999996","  7.4969999999999999","   1.07099999999999973","  1.400000000000000","  8.600000000000000"," 6.1200000000000001","0.9962790697674418"," 5.3550000000000004","0.8717441860465116","Y","   7.867999999999999","N","N","","",44.0,"NORMAL","   8.5679999999999996"],["CDISCPILOT01","1097","01-701-1097","Xanomeline Low Dose",54,"Xanomeline Low Dose",54,"2014-01-01","2014-07-09",68,"65-80",2,"WHITE",1,"M","Y","","Y","Week 20",20.0,141.0,"2014-05-21","WEEK 20","11.000000000000000","Calcium (mmol/L)","CA",30.0,"CHEM","   2.1706500000000002","  2.3203499999999999","  -0.14969999999999972","  2.100000000000000","  2.570000000000000"," 1.0336428571428571","0.8446108949416343"," 1.1049285714285713","0.9028599221789884","Y","   1.684349999999999","N","N","","",235.0,"NORMAL","   2.1706500000000002"],["CDISCPILOT01","1097","01-701-1097","Xanomeline Low Dose",54,"Xanomeline Low Dose",54,"2014-01-01","2014-07-09",68,"65-80",2,"WHITE",1,"M","Y","","Y","Week 20",20.0,141.0,"2014-05-21","WEEK 20","11.000000000000000","Cholesterol (mmol/L)","CHOL",34.0,"CHEM","   5.3788799999999997","  6.2322599999999992","  -0.85337999999999958","  3.850000000000000","  7.399999999999999"," 1.3971116883116881","0.7268756756756757"," 1.6187688311688309","0.8421972972972973","Y","   5.721120000000000","N","N","","",236.0,"NORMAL","   5.3788799999999997"],["CDISCPILOT01","1097","01-701-1097","Xanomeline Low Dose",54,"Xanomeline Low Dose",54,"2014-01-01","2014-07-09",68,"65-80",2,"WHITE",1,"M","Y","","Y","Week 12",12.0,85.0,"2014-03-26","WEEK 12"," 9.000000000000000","Creatine Kinase (U/L)","CK",35.0,"CHEM","  63.0000000000000000"," 96.0000000000000000"," -33.00000000000000000"," 22.000000000000000","198.000000000000000"," 2.8636363636363638","0.3181818181818182"," 4.3636363636363633","0.4848484848484849","Y"," 234.000000000000000","N","N","","",172.0,"NORMAL","  63.0000000000000000"],["CDISCPILOT01","1097","01-701-1097","Xanomeline Low Dose",54,"Xanomeline Low Dose",54,"2014-01-01","2014-07-09",68,"65-80",2,"WHITE",1,"M","Y","","Y","Week 8",8.0,57.0,"2014-02-26","WEEK 8"," 8.000000000000000","Chloride (mmol/L)","CL",20.0,"CHEM"," 100.0000000000000000","103.0000000000000000","  -3.00000000000000000"," 94.000000000000000","112.000000000000000"," 1.0638297872340425","0.8928571428571429"," 1.0957446808510638","0.9196428571428571","Y","  68.000000000000000","N","N","","",143.0,"NORMAL"," 100.0000000000000000"],["CDISCPILOT01","1097","01-701-1097","Xanomeline Low Dose",54,"Xanomeline Low Dose",54,"2014-01-01","2014-07-09",68,"65-80",2,"WHITE",1,"M","Y","","Y","Week 2",2.0,15.0,"2014-01-15","WEEK 2"," 4.000000000000000","Creatinine (umol/L)","CREAT",27.0,"CHEM"," 132.5999999999999943","123.7600000000000051","   8.83999999999998920"," 71.000000000000000","141.000000000000000"," 1.8676056338028169","0.9404255319148935"," 1.7430985915492958","0.8777304964539008","Y","  97.099999999999994","N","N","","",50.0,"NORMAL"," 132.5999999999999943"],["CDISCPILOT01","1097","01-701-1097","Xanomeline Low Dose",54,"Xanomeline Low Dose",54,"2014-01-01","2014-07-09",68,"65-80",2,"WHITE",1,"M","Y","","Y","Week 6",6.0,42.0,"2014-02-11","WEEK 6"," 7.000000000000000","Gamma Glutamyl Transferase (U/L)","GGT",23.0,"CHEM","  16.0000000000000000"," 18.0000000000000000","  -2.00000000000000000"," 10.000000000000000"," 50.000000000000000"," 1.6000000000000001","0.3200000000000000"," 1.8000000000000000","0.3600000000000000","Y","  59.000000000000000","N","N","","",116.0,"NORMAL","  16.0000000000000000"],["CDISCPILOT01","1097","01-701-1097","Xanomeline Low Dose",54,"Xanomeline Low Dose",54,"2014-01-01","2014-07-09",68,"65-80",2,"WHITE",1,"M","Y","","Y","Week 6",6.0,42.0,"2014-02-11","WEEK 6"," 7.000000000000000","Glucose (mmol/L)","GLUC",31.0,"CHEM","   3.7191700000000001","  5.1624299999999996","  -1.44325999999999954","  2.800000000000000"," 13.899999999999999"," 1.3282750000000001","0.2675661870503597"," 1.8437250000000001","0.3713978417266187","Y","  17.130829999999996","N","N","","",117.0,"NORMAL","   3.7191700000000001"],["CDISCPILOT01","1097","01-701-1097","Xanomeline Low Dose",54,"Xanomeline Low Dose",54,"2014-01-01","2014-07-09",68,"65-80",2,"WHITE",1,"M","Y","","Y","Week 24",24.0,169.0,"2014-06-18","WEEK 24","12.000000000000000","Potassium (mmol/L)","K",19.0,"CHEM","   4.0999999999999996","  4.5999999999999996","  -0.50000000000000000","  3.400000000000000","  5.399999999999999"," 1.2058823529411764","0.7592592592592593"," 1.3529411764705881","0.8518518518518519","Y","   4.000000000000000","N","N","","Y",276.0,"NORMAL","   4.0999999999999996"],["CDISCPILOT01","1097","01-701-1097","Xanomeline Low Dose",54,"Xanomeline Low Dose",54,"2014-01-01","2014-07-09",68,"65-80",2,"WHITE",1,"M","Y","","Y","End of Treatment",99.0,169.0,"2014-06-18","WEEK 24","12.000000000000000","Potassium (mmol/L)","K",19.0,"CHEM","   4.0999999999999996","  4.5999999999999996","  -0.50000000000000000","  3.400000000000000","  5.399999999999999"," 1.2058823529411764","0.7592592592592593"," 1.3529411764705881","0.8518518518518519","Y","   4.000000000000000","N","N","","Y",276.0,"NORMAL","   4.0999999999999996"],["CDISCPILOT01","1097","01-701-1097","Xanomeline Low Dose",54,"Xanomeline Low Dose",54,"2014-01-01","2014-07-09",68,"65-80",2,"WHITE",1,"M","Y","","Y","Week 12",12.0,85.0,"2014-03-26","WEEK 12"," 9.000000000000000","Phosphate (mmol/L)","PHOS",29.0,"CHEM","   0.7749600000000000","  1.0332800000000000","  -0.25831999999999999","  0.710000000000000","  1.650000000000000"," 1.0914929577464789","0.4696727272727273"," 1.4553239436619718","0.6262303030303030","Y","   1.700040000000000","N","N","","",190.0,"NORMAL","   0.7749600000000000"],["CDISCPILOT01","1097","01-701-1097","Xanomeline Low Dose",54,"Xanomeline Low Dose",54,"2014-01-01","2014-07-09",68,"65-80",2,"WHITE",1,"M","Y","","Y","Week 20",20.0,141.0,"2014-05-21","WEEK 20","11.000000000000000","Protein (g/L)","PROT",32.0,"CHEM","  64.0000000000000000"," 72.0000000000000000","  -8.00000000000000000"," 60.000000000000000"," 80.000000000000000"," 1.0666666666666667","0.8000000000000000"," 1.2000000000000000","0.9000000000000000","Y","  56.000000000000000","N","N","","",254.0,"NORMAL","  64.0000000000000000"],["CDISCPILOT01","1097","01-701-1097","Xanomeline Low Dose",54,"Xanomeline Low Dose",54,"2014-01-01","2014-07-09",68,"65-80",2,"WHITE",1,"M","Y","","Y","Week 8",8.0,57.0,"2014-02-26","WEEK 8"," 8.000000000000000","Sodium (mmol/L)","SODIUM",18.0,"CHEM"," 136.0000000000000000","134.0000000000000000","   2.00000000000000000","135.000000000000000","145.000000000000000"," 1.0074074074074073","0.9379310344827586"," 0.9925925925925926","0.9241379310344827","Y","  81.500000000000000","N","N","","",156.0,"NORMAL"," 136.0000000000000000"],["CDISCPILOT01","1097","01-701-1097","Xanomeline Low Dose",54,"Xanomeline Low Dose",54,"2014-01-01","2014-07-09",68,"65-80",2,"WHITE",1,"M","Y","","Y","Week 16",16.0,113.0,"2014-04-23","WEEK 16","10.000000000000000","Urate (umol/L)","URATE",28.0,"CHEM"," 243.8679999999999950","279.5559999999999832"," -35.68799999999998818","149.000000000000000","446.000000000000000"," 1.6366979865771811","0.5467892376681615"," 1.8762147651006711","0.6268071748878924","Y"," 425.132000000000005","N","N","","",226.0,"NORMAL"," 243.8679999999999950"],["CDISCPILOT01","1111","01-701-1111","Xanomeline Low Dose",54,"Xanomeline Low Dose",54,"2012-09-07","2012-09-16",81,">80",3,"WHITE",1,"F","N","Y","Y","Week 2",2.0,11.0,"2012-09-17","WEEK 2"," 4.000000000000000","Albumin (g/L)","ALB",33.0,"CHEM","  38.0000000000000000"," 36.0000000000000000","   2.00000000000000000"," 35.000000000000000"," 46.000000000000000"," 1.0857142857142856","0.8260869565217391"," 1.0285714285714285","0.7826086956521739","Y","  31.000000000000000","N","N","","Y",38.0,"NORMAL","  38.0000000000000000"],["CDISCPILOT01","1111","01-701-1111","Xanomeline Low Dose",54,"Xanomeline Low Dose",54,"2012-09-07","2012-09-16",81,">80",3,"WHITE",1,"F","N","Y","Y","End of Treatment",99.0,11.0,"2012-09-17","WEEK 2"," 4.000000000000000","Albumin (g/L)","ALB",33.0,"CHEM","  38.0000000000000000"," 36.0000000000000000","   2.00000000000000000"," 35.000000000000000"," 46.000000000000000"," 1.0857142857142856","0.8260869565217391"," 1.0285714285714285","0.7826086956521739","Y","  31.000000000000000","N","N","","Y",38.0,"NORMAL","  38.0000000000000000"],["CDISCPILOT01","1111","01-701-1111","Xanomeline Low Dose",54,"Xanomeline Low Dose",54,"2012-09-07","2012-09-16",81,">80",3,"WHITE",1,"F","N","Y","Y","Week 2",2.0,11.0,"2012-09-17","WEEK 2"," 4.000000000000000","Alkaline Phosphatase (U/L)","ALP",22.0,"CHEM","  58.0000000000000000"," 64.0000000000000000","  -6.00000000000000000"," 35.000000000000000","115.000000000000000"," 1.6571428571428573","0.5043478260869565"," 1.8285714285714285","0.5565217391304348","Y"," 114.500000000000000","N","N","","Y",39.0,"NORMAL","  58.0000000000000000"],["CDISCPILOT01","1111","01-701-1111","Xanomeline Low Dose",54,"Xanomeline Low Dose",54,"2012-09-07","2012-09-16",81,">80",3,"WHITE",1,"F","N","Y","Y","End of Treatment",99.0,11.0,"2012-09-17","WEEK 2"," 4.000000000000000","Alkaline Phosphatase (U/L)","ALP",22.0,"CHEM","  58.0000000000000000"," 64.0000000000000000","  -6.00000000000000000"," 35.000000000000000","115.000000000000000"," 1.6571428571428573","0.5043478260869565"," 1.8285714285714285","0.5565217391304348","Y"," 114.500000000000000","N","N","","Y",39.0,"NORMAL","  58.0000000000000000"],["CDISCPILOT01","1111","01-701-1111","Xanomeline Low Dose",54,"Xanomeline Low Dose",54,"2012-09-07","2012-09-16",81,">80",3,"WHITE",1,"F","N","Y","Y","Week 2",2.0,11.0,"2012-09-17","WEEK 2"," 4.000000000000000","Alanine Aminotransferase (U/L)","ALT",24.0,"CHEM","  19.0000000000000000"," 23.0000000000000000","  -4.00000000000000000","  6.000000000000000"," 32.000000000000000"," 3.1666666666666665","0.5937500000000000"," 3.8333333333333335","0.7187500000000000","Y","  29.000000000000000","N","N","","Y",40.0,"NORMAL","  19.0000000000000000"],["CDISCPILOT01","1111","01-701-1111","Xanomeline Low Dose",54,"Xanomeline Low Dose",54,"2012-09-07","2012-09-16",81,">80",3,"WHITE",1,"F","N","Y","Y","End of Treatment",99.0,11.0,"2012-09-17","WEEK 2"," 4.000000000000000","Alanine Aminotransferase (U/L)","ALT",24.0,"CHEM","  19.0000000000000000"," 23.0000000000000000","  -4.00000000000000000","  6.000000000000000"," 32.000000000000000"," 3.1666666666666665","0.5937500000000000"," 3.8333333333333335","0.7187500000000000","Y","  29.000000000000000","N","N","","Y",40.0,"NORMAL","  19.0000000000000000"],["CDISCPILOT01","1111","01-701-1111","Xanomeline Low Dose",54,"Xanomeline Low Dose",54,"2012-09-07","2012-09-16",81,">80",3,"WHITE",1,"F","N","Y","Y","Week 2",2.0,11.0,"2012-09-17","WEEK 2"," 4.000000000000000","Aspartate Aminotransferase (U/L)","AST",25.0,"CHEM","  23.0000000000000000"," 28.0000000000000000","  -5.00000000000000000","  9.000000000000000"," 34.000000000000000"," 2.5555555555555554","0.6764705882352942"," 3.1111111111111112","0.8235294117647058","Y","  28.000000000000000","N","N","","Y",42.0,"NORMAL","  23.0000000000000000"],["CDISCPILOT01","1111","01-701-1111","Xanomeline Low Dose",54,"Xanomeline Low Dose",54,"2012-09-07","2012-09-16",81,">80",3,"WHITE",1,"F","N","Y","Y","End of Treatment",99.0,11.0,"2012-09-17","WEEK 2"," 4.000000000000000","Aspartate Aminotransferase (U/L)","AST",25.0,"CHEM","  23.0000000000000000"," 28.0000000000000000","  -5.00000000000000000","  9.000000000000000"," 34.000000000000000"," 2.5555555555555554","0.6764705882352942"," 3.1111111111111112","0.8235294117647058","Y","  28.000000000000000","N","N","","Y",42.0,"NORMAL","  23.0000000000000000"],["CDISCPILOT01","1111","01-701-1111","Xanomeline Low Dose",54,"Xanomeline Low Dose",54,"2012-09-07","2012-09-16",81,">80",3,"WHITE",1,"F","N","Y","Y","Week 2",2.0,11.0,"2012-09-17","WEEK 2"," 4.000000000000000","Bilirubin (umol/L)","BILI",21.0,"CHEM","   8.5499999999999989","  6.8399999999999999","   1.70999999999999908","  3.000000000000000"," 21.000000000000000"," 2.8499999999999996","0.4071428571428571"," 2.2799999999999998","0.3257142857142857","Y","  22.950000000000003","N","N","","Y",44.0,"NORMAL","   8.5499999999999989"],["CDISCPILOT01","1111","01-701-1111","Xanomeline Low Dose",54,"Xanomeline Low Dose",54,"2012-09-07","2012-09-16",81,">80",3,"WHITE",1,"F","N","Y","Y","End of Treatment",99.0,11.0,"2012-09-17","WEEK 2"," 4.000000000000000","Bilirubin (umol/L)","BILI",21.0,"CHEM","   8.5499999999999989","  6.8399999999999999","   1.70999999999999908","  3.000000000000000"," 21.000000000000000"," 2.8499999999999996","0.4071428571428571"," 2.2799999999999998","0.3257142857142857","Y","  22.950000000000003","N","N","","Y",44.0,"NORMAL","   8.5499999999999989"],["CDISCPILOT01","1111","01-701-1111","Xanomeline Low Dose",54,"Xanomeline Low Dose",54,"2012-09-07","2012-09-16",81,">80",3,"WHITE",1,"F","N","Y","Y","Week 2",2.0,11.0,"2012-09-17","WEEK 2"," 4.000000000000000","Blood Urea Nitrogen (mmol/L)","BUN",26.0,"CHEM","   3.9270000000000000","  2.4990000000000001","   1.42799999999999994","  1.400000000000000","  8.600000000000000"," 2.8050000000000002","0.4566279069767442"," 1.7850000000000001","0.2905813953488373","Y","   8.972999999999999","N","N","","Y",45.0,"NORMAL","   3.9270000000000000"],["CDISCPILOT01","1111","01-701-1111","Xanomeline Low Dose",54,"Xanomeline Low Dose",54,"2012-09-07","2012-09-16",81,">80",3,"WHITE",1,"F","N","Y","Y","End of Treatment",99.0,11.0,"2012-09-17","WEEK 2"," 4.000000000000000","Blood Urea Nitrogen (mmol/L)","BUN",26.0,"CHEM","   3.9270000000000000","  2.4990000000000001","   1.42799999999999994","  1.400000000000000","  8.600000000000000"," 2.8050000000000002","0.4566279069767442"," 1.7850000000000001","0.2905813953488373","Y","   8.972999999999999","N","N","","Y",45.0,"NORMAL","   3.9270000000000000"],["CDISCPILOT01","1111","01-701-1111","Xanomeline Low Dose",54,"Xanomeline Low Dose",54,"2012-09-07","2012-09-16",81,">80",3,"WHITE",1,"F","N","Y","Y","Week 2",2.0,11.0,"2012-09-17","WEEK 2"," 4.000000000000000","Calcium (mmol/L)","CA",30.0,"CHEM","   2.2953999999999999","  2.2205499999999998","   0.07485000000000008","  2.100000000000000","  2.570000000000000"," 1.0930476190476190","0.8931517509727627"," 1.0574047619047617","0.8640272373540856","Y","   1.559600000000000","N","N","","Y",46.0,"NORMAL","   2.2953999999999999"],["CDISCPILOT01","1111","01-701-1111","Xanomeline Low Dose",54,"Xanomeline Low Dose",54,"2012-09-07","2012-09-16",81,">80",3,"WHITE",1,"F","N","Y","Y","End of Treatment",99.0,11.0,"2012-09-17","WEEK 2"," 4.000000000000000","Calcium (mmol/L)","CA",30.0,"CHEM","   2.2953999999999999","  2.2205499999999998","   0.07485000000000008","  2.100000000000000","  2.570000000000000"," 1.0930476190476190","0.8931517509727627"," 1.0574047619047617","0.8640272373540856","Y","   1.559600000000000","N","N","","Y",46.0,"NORMAL","   2.2953999999999999"],["CDISCPILOT01","1111","01-701-1111","Xanomeline Low Dose",54,"Xanomeline Low Dose",54,"2012-09-07","2012-09-16",81,">80",3,"WHITE",1,"F","N","Y","Y","Week 2",2.0,11.0,"2012-09-17","WEEK 2"," 4.000000000000000","Cholesterol (mmol/L)","CHOL",34.0,"CHEM","   5.4564599999999999","  5.7150599999999994","  -0.25859999999999950","  4.029999999999999","  7.760000000000000"," 1.3539602977667495","0.7031520618556701"," 1.4181290322580646","0.7364768041237113","Y","   6.183540000000001","N","N","","Y",47.0,"NORMAL","   5.4564599999999999"],["CDISCPILOT01","1111","01-701-1111","Xanomeline Low Dose",54,"Xanomeline Low Dose",54,"2012-09-07","2012-09-16",81,">80",3,"WHITE",1,"F","N","Y","Y","End of Treatment",99.0,11.0,"2012-09-17","WEEK 2"," 4.000000000000000","Cholesterol (mmol/L)","CHOL",34.0,"CHEM","   5.4564599999999999","  5.7150599999999994","  -0.25859999999999950","  4.029999999999999","  7.760000000000000"," 1.3539602977667495","0.7031520618556701"," 1.4181290322580646","0.7364768041237113","Y","   6.183540000000001","N","N","","Y",47.0,"NORMAL","   5.4564599999999999"],["CDISCPILOT01","1111","01-701-1111","Xanomeline Low Dose",54,"Xanomeline Low Dose",54,"2012-09-07","2012-09-16",81,">80",3,"WHITE",1,"F","N","Y","Y","Week 2",2.0,11.0,"2012-09-17","WEEK 2"," 4.000000000000000","Creatine Kinase (U/L)","CK",35.0,"CHEM","  72.0000000000000000"," 60.0000000000000000","  12.00000000000000000"," 21.000000000000000","169.000000000000000"," 3.4285714285714284","0.4260355029585799"," 2.8571428571428572","0.3550295857988165","Y"," 181.500000000000000","N","N","","Y",48.0,"NORMAL","  72.0000000000000000"],["CDISCPILOT01","1111","01-701-1111","Xanomeline Low Dose",54,"Xanomeline Low Dose",54,"2012-09-07","2012-09-16",81,">80",3,"WHITE",1,"F","N","Y","Y","End of Treatment",99.0,11.0,"2012-09-17","WEEK 2"," 4.000000000000000","Creatine Kinase (U/L)","CK",35.0,"CHEM","  72.0000000000000000"," 60.0000000000000000","  12.00000000000000000"," 21.000000000000000","169.000000000000000"," 3.4285714285714284","0.4260355029585799"," 2.8571428571428572","0.3550295857988165","Y"," 181.500000000000000","N","N","","Y",48.0,"NORMAL","  72.0000000000000000"],["CDISCPILOT01","1111","01-701-1111","Xanomeline Low Dose",54,"Xanomeline Low Dose",54,"2012-09-07","2012-09-16",81,">80",3,"WHITE",1,"F","N","Y","Y","Week 2",2.0,11.0,"2012-09-17","WEEK 2"," 4.000000000000000","Chloride (mmol/L)","CL",20.0,"CHEM"," 105.0000000000000000","105.0000000000000000","   0.00000000000000000"," 94.000000000000000","112.000000000000000"," 1.1170212765957446","0.9375000000000000"," 1.1170212765957446","0.9375000000000000","Y","  63.000000000000000","N","N","","Y",49.0,"NORMAL"," 105.0000000000000000"],["CDISCPILOT01","1111","01-701-1111","Xanomeline Low Dose",54,"Xanomeline Low Dose",54,"2012-09-07","2012-09-16",81,">80",3,"WHITE",1,"F","N","Y","Y","End of Treatment",99.0,11.0,"2012-09-17","WEEK 2"," 4.000000000000000","Chloride (mmol/L)","CL",20.0,"CHEM"," 105.0000000000000000","105.0000000000000000","   0.00000000000000000"," 94.000000000000000","112.000000000000000"," 1.1170212765957446","0.9375000000000000"," 1.1170212765957446","0.9375000000000000","Y","  63.000000000000000","N","N","","Y",49.0,"NORMAL"," 105.0000000000000000"],["CDISCPILOT01","1111","01-701-1111","Xanomeline Low Dose",54,"Xanomeline Low Dose",54,"2012-09-07","2012-09-16",81,">80",3,"WHITE",1,"F","N","Y","Y","Week 2",2.0,11.0,"2012-09-17","WEEK 2"," 4.000000000000000","Creatinine (umol/L)","CREAT",27.0,"CHEM","  88.3999999999999915"," 79.5599999999999881","   8.84000000000000341"," 62.000000000000000","124.000000000000000"," 1.4258064516129030","0.7129032258064515"," 1.2832258064516127","0.6416129032258063","Y","  97.600000000000009","N","N","","Y",51.0,"NORMAL","  88.3999999999999915"],["CDISCPILOT01","1111","01-701-1111","Xanomeline Low Dose",54,"Xanomeline Low Dose",54,"2012-09-07","2012-09-16",81,">80",3,"WHITE",1,"F","N","Y","Y","End of Treatment",99.0,11.0,"2012-09-17","WEEK 2"," 4.000000000000000","Creatinine (umol/L)","CREAT",27.0,"CHEM","  88.3999999999999915"," 79.5599999999999881","   8.84000000000000341"," 62.000000000000000","124.000000000000000"," 1.4258064516129030","0.7129032258064515"," 1.2832258064516127","0.6416129032258063","Y","  97.600000000000009","N","N","","Y",51.0,"NORMAL","  88.3999999999999915"],["CDISCPILOT01","1111","01-701-1111","Xanomeline Low Dose",54,"Xanomeline Low Dose",54,"2012-09-07","2012-09-16",81,">80",3,"WHITE",1,"F","N","Y","Y","Week 2",2.0,11.0,"2012-09-17","WEEK 2"," 4.000000000000000","Gamma Glutamyl Transferase (U/L)","GGT",23.0,"CHEM","  10.0000000000000000"," 10.0000000000000000","   0.00000000000000000","  5.000000000000000"," 50.000000000000000"," 2.0000000000000000","0.2000000000000000"," 2.0000000000000000","0.2000000000000000","Y","  65.000000000000000","N","N","","Y",53.0,"NORMAL","  10.0000000000000000"],["CDISCPILOT01","1111","01-701-1111","Xanomeline Low Dose",54,"Xanomeline Low Dose",54,"2012-09-07","2012-09-16",81,">80",3,"WHITE",1,"F","N","Y","Y","End of Treatment",99.0,11.0,"2012-09-17","WEEK 2"," 4.000000000000000","Gamma Glutamyl Transferase (U/L)","GGT",23.0,"CHEM","  10.0000000000000000"," 10.0000000000000000","   0.00000000000000000","  5.000000000000000"," 50.000000000000000"," 2.0000000000000000","0.2000000000000000"," 2.0000000000000000","0.2000000000000000","Y","  65.000000000000000","N","N","","Y",53.0,"NORMAL","  10.0000000000000000"],["CDISCPILOT01","1111","01-701-1111","Xanomeline Low Dose",54,"Xanomeline Low Dose",54,"2012-09-07","2012-09-16",81,">80",3,"WHITE",1,"F","N","Y","Y","Week 2",2.0,11.0,"2012-09-17","WEEK 2"," 4.000000000000000","Glucose (mmol/L)","GLUC",31.0,"CHEM","   5.3289599999999986","  5.3289599999999986","   0.00000000000000000","  2.800000000000000"," 13.899999999999999"," 1.9031999999999996","0.3833784172661870"," 1.9031999999999996","0.3833784172661870","Y","  15.521039999999999","N","N","","Y",54.0,"NORMAL","   5.3289599999999986"],["CDISCPILOT01","1111","01-701-1111","Xanomeline Low Dose",54,"Xanomeline Low Dose",54,"2012-09-07","2012-09-16",81,">80",3,"WHITE",1,"F","N","Y","Y","End of Treatment",99.0,11.0,"2012-09-17","WEEK 2"," 4.000000000000000","Glucose (mmol/L)","GLUC",31.0,"CHEM","   5.3289599999999986","  5.3289599999999986","   0.00000000000000000","  2.800000000000000"," 13.899999999999999"," 1.9031999999999996","0.3833784172661870"," 1.9031999999999996","0.3833784172661870","Y","  15.521039999999999","N","N","","Y",54.0,"NORMAL","   5.3289599999999986"],["CDISCPILOT01","1111","01-701-1111","Xanomeline Low Dose",54,"Xanomeline Low Dose",54,"2012-09-07","2012-09-16",81,">80",3,"WHITE",1,"F","N","Y","Y","Week 2",2.0,11.0,"2012-09-17","WEEK 2"," 4.000000000000000","Potassium (mmol/L)","K",19.0,"CHEM","   4.6999999999999993","  3.8999999999999999","   0.79999999999999938","  3.400000000000000","  5.399999999999999"," 1.3823529411764703","0.8703703703703703"," 1.1470588235294117","0.7222222222222223","Y","   3.400000000000000","N","N","","Y",57.0,"NORMAL","   4.6999999999999993"],["CDISCPILOT01","1111","01-701-1111","Xanomeline Low Dose",54,"Xanomeline Low Dose",54,"2012-09-07","2012-09-16",81,">80",3,"WHITE",1,"F","N","Y","Y","End of Treatment",99.0,11.0,"2012-09-17","WEEK 2"," 4.000000000000000","Potassium (mmol/L)","K",19.0,"CHEM","   4.6999999999999993","  3.8999999999999999","   0.79999999999999938","  3.400000000000000","  5.399999999999999"," 1.3823529411764703","0.8703703703703703"," 1.1470588235294117","0.7222222222222223","Y","   3.400000000000000","N","N","","Y",57.0,"NORMAL","   4.6999999999999993"],["CDISCPILOT01","1111","01-701-1111","Xanomeline Low Dose",54,"Xanomeline Low Dose",54,"2012-09-07","2012-09-16",81,">80",3,"WHITE",1,"F","N","Y","Y","Week 2",2.0,11.0,"2012-09-17","WEEK 2"," 4.000000000000000","Phosphate (mmol/L)","PHOS",29.0,"CHEM","   1.0655699999999999","  1.0009900000000000","   0.06457999999999986","  0.710000000000000","  1.650000000000000"," 1.5008028169014085","0.6457999999999999"," 1.4098450704225354","0.6066606060606061","Y","   1.409430000000000","N","N","","Y",66.0,"NORMAL","   1.0655699999999999"],["CDISCPILOT01","1111","01-701-1111","Xanomeline Low Dose",54,"Xanomeline Low Dose",54,"2012-09-07","2012-09-16",81,">80",3,"WHITE",1,"F","N","Y","Y","End of Treatment",99.0,11.0,"2012-09-17","WEEK 2"," 4.000000000000000","Phosphate (mmol/L)","PHOS",29.0,"CHEM","   1.0655699999999999","  1.0009900000000000","   0.06457999999999986","  0.710000000000000","  1.650000000000000"," 1.5008028169014085","0.6457999999999999"," 1.4098450704225354","0.6066606060606061","Y","   1.409430000000000","N","N","","Y",66.0,"NORMAL","   1.0655699999999999"],["CDISCPILOT01","1111","01-701-1111","Xanomeline Low Dose",54,"Xanomeline Low Dose",54,"2012-09-07","2012-09-16",81,">80",3,"WHITE",1,"F","N","Y","Y","Week 2",2.0,11.0,"2012-09-17","WEEK 2"," 4.000000000000000","Protein (g/L)","PROT",32.0,"CHEM","  73.0000000000000000"," 72.0000000000000000","   1.00000000000000000"," 60.000000000000000"," 80.000000000000000"," 1.2166666666666666","0.9125000000000000"," 1.2000000000000000","0.9000000000000000","Y","  47.000000000000000","N","N","","Y",68.0,"NORMAL","  73.0000000000000000"],["CDISCPILOT01","1111","01-701-1111","Xanomeline Low Dose",54,"Xanomeline Low Dose",54,"2012-09-07","2012-09-16",81,">80",3,"WHITE",1,"F","N","Y","Y","End of Treatment",99.0,11.0,"2012-09-17","WEEK 2"," 4.000000000000000","Protein (g/L)","PROT",32.0,"CHEM","  73.0000000000000000"," 72.0000000000000000","   1.00000000000000000"," 60.000000000000000"," 80.000000000000000"," 1.2166666666666666","0.9125000000000000"," 1.2000000000000000","0.9000000000000000","Y","  47.000000000000000","N","N","","Y",68.0,"NORMAL","  73.0000000000000000"],["CDISCPILOT01","1111","01-701-1111","Xanomeline Low Dose",54,"Xanomeline Low Dose",54,"2012-09-07","2012-09-16",81,">80",3,"WHITE",1,"F","N","Y","Y","Week 2",2.0,11.0,"2012-09-17","WEEK 2"," 4.000000000000000","Sodium (mmol/L)","SODIUM",18.0,"CHEM"," 138.0000000000000000","137.0000000000000000","   1.00000000000000000","135.000000000000000","145.000000000000000"," 1.0222222222222221","0.9517241379310345"," 1.0148148148148148","0.9448275862068966","Y","  79.500000000000000","N","N","","Y",64.0,"NORMAL"," 138.0000000000000000"],["CDISCPILOT01","1111","01-701-1111","Xanomeline Low Dose",54,"Xanomeline Low Dose",54,"2012-09-07","2012-09-16",81,">80",3,"WHITE",1,"F","N","Y","Y","End of Treatment",99.0,11.0,"2012-09-17","WEEK 2"," 4.000000000000000","Sodium (mmol/L)","SODIUM",18.0,"CHEM"," 138.0000000000000000","137.0000000000000000","   1.00000000000000000","135.000000000000000","145.000000000000000"," 1.0222222222222221","0.9517241379310345"," 1.0148148148148148","0.9448275862068966","Y","  79.500000000000000","N","N","","Y",64.0,"NORMAL"," 138.0000000000000000"],["CDISCPILOT01","1111","01-701-1111","Xanomeline Low Dose",54,"Xanomeline Low Dose",54,"2012-09-07","2012-09-16",81,">80",3,"WHITE",1,"F","N","Y","Y","Week 2",2.0,11.0,"2012-09-17","WEEK 2"," 4.000000000000000","Urate (umol/L)","URATE",28.0,"CHEM"," 226.0240000000000009","190.3360000000000127","  35.68799999999998818","149.000000000000000","446.000000000000000"," 1.5169395973154363","0.5067802690582960"," 1.2774228187919463","0.4267623318385650","Y"," 442.975999999999999","N","N","","Y",71.0,"NORMAL"," 226.0240000000000009"],["CDISCPILOT01","1111","01-701-1111","Xanomeline Low Dose",54,"Xanomeline Low Dose",54,"2012-09-07","2012-09-16",81,">80",3,"WHITE",1,"F","N","Y","Y","End of Treatment",99.0,11.0,"2012-09-17","WEEK 2"," 4.000000000000000","Urate (umol/L)","URATE",28.0,"CHEM"," 226.0240000000000009","190.3360000000000127","  35.68799999999998818","149.000000000000000","446.000000000000000"," 1.5169395973154363","0.5067802690582960"," 1.2774228187919463","0.4267623318385650","Y"," 442.975999999999999","N","N","","Y",71.0,"NORMAL"," 226.0240000000000009"],["CDISCPILOT01","1115","01-701-1115","Xanomeline Low Dose",54,"Xanomeline Low Dose",54,"2012-11-30","2013-01-23",84,">80",3,"WHITE",1,"M","N","Y","Y","Week 4",4.0,27.0,"2012-12-26","WEEK 4"," 5.000000000000000","Albumin (g/L)","ALB",33.0,"CHEM","  35.0000000000000000"," 39.0000000000000000","  -4.00000000000000000"," 35.000000000000000"," 46.000000000000000"," 1.0000000000000000","0.7608695652173914"," 1.1142857142857143","0.8478260869565217","Y","  34.000000000000000","N","N","","",73.0,"NORMAL","  35.0000000000000000"],["CDISCPILOT01","1115","01-701-1115","Xanomeline Low Dose",54,"Xanomeline Low Dose",54,"2012-11-30","2013-01-23",84,">80",3,"WHITE",1,"M","N","Y","Y","Week 2",2.0,14.0,"2012-12-13","WEEK 2"," 4.000000000000000","Alkaline Phosphatase (U/L)","ALP",22.0,"CHEM","  88.0000000000000000"," 93.0000000000000000","  -5.00000000000000000"," 35.000000000000000","115.000000000000000"," 2.5142857142857142","0.7652173913043478"," 2.6571428571428570","0.8086956521739130","Y","  84.500000000000000","N","N","","",39.0,"NORMAL","  88.0000000000000000"],["CDISCPILOT01","1115","01-701-1115","Xanomeline Low Dose",54,"Xanomeline Low Dose",54,"2012-11-30","2013-01-23",84,">80",3,"WHITE",1,"M","N","Y","Y","Week 4",4.0,27.0,"2012-12-26","WEEK 4"," 5.000000000000000","Alanine Aminotransferase (U/L)","ALT",24.0,"CHEM","  13.0000000000000000"," 18.0000000000000000","  -5.00000000000000000","  6.000000000000000"," 35.000000000000000"," 2.1666666666666665","0.3714285714285714"," 3.0000000000000000","0.5142857142857142","Y","  39.500000000000000","N","N","","",75.0,"NORMAL","  13.0000000000000000"],["CDISCPILOT01","1115","01-701-1115","Xanomeline Low Dose",54,"Xanomeline Low Dose",54,"2012-11-30","2013-01-23",84,">80",3,"WHITE",1,"M","N","Y","Y","Week 4",4.0,27.0,"2012-12-26","WEEK 4"," 5.000000000000000","Aspartate Aminotransferase (U/L)","AST",25.0,"CHEM","  20.0000000000000000"," 26.0000000000000000","  -6.00000000000000000"," 11.000000000000000"," 36.000000000000000"," 1.8181818181818181","0.5555555555555556"," 2.3636363636363638","0.7222222222222222","Y","  34.000000000000000","N","N","","",76.0,"NORMAL","  20.0000000000000000"],["CDISCPILOT01","1115","01-701-1115","Xanomeline Low Dose",54,"Xanomeline Low Dose",54,"2012-11-30","2013-01-23",84,">80",3,"WHITE",1,"M","N","Y","Y","Week 2",2.0,14.0,"2012-12-13","WEEK 2"," 4.000000000000000","Bilirubin (umol/L)","BILI",21.0,"CHEM","   6.8399999999999999","  8.5499999999999989","  -1.70999999999999908","  3.000000000000000"," 21.000000000000000"," 2.2799999999999998","0.3257142857142857"," 2.8499999999999996","0.4071428571428571","Y","  24.660000000000000","N","N","","",43.0,"NORMAL","   6.8399999999999999"],["CDISCPILOT01","1115","01-701-1115","Xanomeline Low Dose",54,"Xanomeline Low Dose",54,"2012-11-30","2013-01-23",84,">80",3,"WHITE",1,"M","N","Y","Y","Week 6",6.0,42.0,"2013-01-10","WEEK 6"," 7.000000000000000","Blood Urea Nitrogen (mmol/L)","BUN",26.0,"CHEM","   8.9249999999999989","  7.4969999999999999","   1.42799999999999905","  1.400000000000000","  8.600000000000000"," 6.3750000000000000","1.0377906976744184"," 5.3550000000000004","0.8717441860465116","Y","   8.225000000000000","N","N","","",124.0,"HIGH","   8.9249999999999989"],["CDISCPILOT01","1115","01-701-1115","Xanomeline Low Dose",54,"Xanomeline Low Dose",54,"2012-11-30","2013-01-23",84,">80",3,"WHITE",1,"M","N","Y","Y","Week 2",2.0,14.0,"2012-12-13","WEEK 2"," 4.000000000000000","Calcium (mmol/L)","CA",30.0,"CHEM","   2.2205499999999998","  2.2704499999999999","  -0.04990000000000006","  2.100000000000000","  2.570000000000000"," 1.0574047619047617","0.8640272373540856"," 1.0811666666666666","0.8834435797665370","Y","   1.634450000000000","N","N","","",45.0,"NORMAL","   2.2205499999999998"],["CDISCPILOT01","1115","01-701-1115","Xanomeline Low Dose",54,"Xanomeline Low Dose",54,"2012-11-30","2013-01-23",84,">80",3,"WHITE",1,"M","N","Y","Y","Week 4",4.0,27.0,"2012-12-26","WEEK 4"," 5.000000000000000","Cholesterol (mmol/L)","CHOL",34.0,"CHEM","   5.6633399999999998","  6.5684399999999998","  -0.90510000000000002","  3.850000000000000","  7.399999999999999"," 1.4709974025974024","0.7653162162162163"," 1.7060883116883117","0.8876270270270271","Y","   5.436660000000000","N","N","","",81.0,"NORMAL","   5.6633399999999998"],["CDISCPILOT01","1115","01-701-1115","Xanomeline Low Dose",54,"Xanomeline Low Dose",54,"2012-11-30","2013-01-23",84,">80",3,"WHITE",1,"M","N","Y","Y","Week 2",2.0,14.0,"2012-12-13","WEEK 2"," 4.000000000000000","Creatine Kinase (U/L)","CK",35.0,"CHEM","  73.0000000000000000"," 79.0000000000000000","  -6.00000000000000000"," 22.000000000000000","198.000000000000000"," 3.3181818181818183","0.3686868686868687"," 3.5909090909090908","0.3989898989898990","Y"," 224.000000000000000","N","N","","",47.0,"NORMAL","  73.0000000000000000"],["CDISCPILOT01","1115","01-701-1115","Xanomeline Low Dose",54,"Xanomeline Low Dose",54,"2012-11-30","2013-01-23",84,">80",3,"WHITE",1,"M","N","Y","Y","Week 8",8.0,55.0,"2013-01-23","WEEK 8"," 8.000000000000000","Chloride (mmol/L)","CL",20.0,"CHEM"," 104.0000000000000000","102.0000000000000000","   2.00000000000000000"," 94.000000000000000","112.000000000000000"," 1.1063829787234043","0.9285714285714286"," 1.0851063829787233","0.9107142857142857","Y","  64.000000000000000","N","N","","Y",158.0,"NORMAL"," 104.0000000000000000"],["CDISCPILOT01","1115","01-701-1115","Xanomeline Low Dose",54,"Xanomeline Low Dose",54,"2012-11-30","2013-01-23",84,">80",3,"WHITE",1,"M","N","Y","Y","End of Treatment",99.0,55.0,"2013-01-23","WEEK 8"," 8.000000000000000","Chloride (mmol/L)","CL",20.0,"CHEM"," 104.0000000000000000","102.0000000000000000","   2.00000000000000000"," 94.000000000000000","112.000000000000000"," 1.1063829787234043","0.9285714285714286"," 1.0851063829787233","0.9107142857142857","Y","  64.000000000000000","N","N","","Y",158.0,"NORMAL"," 104.0000000000000000"],["CDISCPILOT01","1115","01-701-1115","Xanomeline Low Dose",54,"Xanomeline Low Dose",54,"2012-11-30","2013-01-23",84,">80",3,"WHITE",1,"M","N","Y","Y","Week 6",6.0,42.0,"2013-01-10","WEEK 6"," 7.000000000000000","Creatinine (umol/L)","CREAT",27.0,"CHEM"," 132.5999999999999943","114.9200000000000017","  17.67999999999999261"," 71.000000000000000","141.000000000000000"," 1.8676056338028169","0.9404255319148935"," 1.6185915492957748","0.8150354609929078","Y","  97.099999999999994","N","N","","",129.0,"NORMAL"," 132.5999999999999943"],["CDISCPILOT01","1115","01-701-1115","Xanomeline Low Dose",54,"Xanomeline Low Dose",54,"2012-11-30","2013-01-23",84,">80",3,"WHITE",1,"M","N","Y","Y","Week 4",4.0,27.0,"2012-12-26","WEEK 4"," 5.000000000000000","Gamma Glutamyl Transferase (U/L)","GGT",23.0,"CHEM","  30.0000000000000000"," 31.0000000000000000","  -1.00000000000000000"," 10.000000000000000"," 50.000000000000000"," 3.0000000000000000","0.6000000000000000"," 3.1000000000000001","0.6200000000000000","Y","  45.000000000000000","N","N","","",86.0,"NORMAL","  30.0000000000000000"],["CDISCPILOT01","1115","01-701-1115","Xanomeline Low Dose",54,"Xanomeline Low Dose",54,"2012-11-30","2013-01-23",84,">80",3,"WHITE",1,"M","N","Y","Y","Week 8",8.0,55.0,"2013-01-23","WEEK 8"," 8.000000000000000","Glucose (mmol/L)","GLUC",31.0,"CHEM","   4.3852899999999986","  4.1077399999999997","   0.27754999999999885","  2.800000000000000"," 13.899999999999999"," 1.5661749999999997","0.3154884892086330"," 1.4670500000000000","0.2955208633093525","Y","  16.464710000000000","N","N","","Y",163.0,"NORMAL","   4.3852899999999986"],["CDISCPILOT01","1115","01-701-1115","Xanomeline Low Dose",54,"Xanomeline Low Dose",54,"2012-11-30","2013-01-23",84,">80",3,"WHITE",1,"M","N","Y","Y","End of Treatment",99.0,55.0,"2013-01-23","WEEK 8"," 8.000000000000000","Glucose (mmol/L)","GLUC",31.0,"CHEM","   4.3852899999999986","  4.1077399999999997","   0.27754999999999885","  2.800000000000000"," 13.899999999999999"," 1.5661749999999997","0.3154884892086330"," 1.4670500000000000","0.2955208633093525","Y","  16.464710000000000","N","N","","Y",163.0,"NORMAL","   4.3852899999999986"],["CDISCPILOT01","1115","01-701-1115","Xanomeline Low Dose",54,"Xanomeline Low Dose",54,"2012-11-30","2013-01-23",84,">80",3,"WHITE",1,"M","N","Y","Y","Week 6",6.0,42.0,"2013-01-10","WEEK 6"," 7.000000000000000","Potassium (mmol/L)","K",19.0,"CHEM","   5.2999999999999998","  4.2999999999999998","   1.00000000000000000","  3.400000000000000","  5.399999999999999"," 1.5588235294117647","0.9814814814814815"," 1.2647058823529411","0.7962962962962964","Y","   3.600000000000000","N","N","","",135.0,"NORMAL","   5.2999999999999998"],["CDISCPILOT01","1115","01-701-1115","Xanomeline Low Dose",54,"Xanomeline Low Dose",54,"2012-11-30","2013-01-23",84,">80",3,"WHITE",1,"M","N","Y","Y","Week 4",4.0,27.0,"2012-12-26","WEEK 4"," 5.000000000000000","Phosphate (mmol/L)","PHOS",29.0,"CHEM","   1.0009900000000000","  1.0978600000000001","  -0.09687000000000001","  0.710000000000000","  1.650000000000000"," 1.4098450704225354","0.6066606060606061"," 1.5462816901408452","0.6653696969696971","Y","   1.474010000000000","N","N","","",97.0,"NORMAL","   1.0009900000000000"],["CDISCPILOT01","1115","01-701-1115","Xanomeline Low Dose",54,"Xanomeline Low Dose",54,"2012-11-30","2013-01-23",84,">80",3,"WHITE",1,"M","N","Y","Y","Week 2",2.0,14.0,"2012-12-13","WEEK 2"," 4.000000000000000","Protein (g/L)","PROT",32.0,"CHEM","  63.0000000000000000"," 67.0000000000000000","  -4.00000000000000000"," 60.000000000000000"," 80.000000000000000"," 1.0500000000000000","0.7875000000000000"," 1.1166666666666667","0.8375000000000000","Y","  57.000000000000000","N","N","","",67.0,"NORMAL","  63.0000000000000000"],["CDISCPILOT01","1115","01-701-1115","Xanomeline Low Dose",54,"Xanomeline Low Dose",54,"2012-11-30","2013-01-23",84,">80",3,"WHITE",1,"M","N","Y","Y","Week 4",4.0,27.0,"2012-12-26","WEEK 4"," 5.000000000000000","Sodium (mmol/L)","SODIUM",18.0,"CHEM"," 140.0000000000000000","139.0000000000000000","   1.00000000000000000","135.000000000000000","145.000000000000000"," 1.0370370370370370","0.9655172413793104"," 1.0296296296296297","0.9586206896551724","Y","  77.500000000000000","N","N","","",96.0,"NORMAL"," 140.0000000000000000"],["CDISCPILOT01","1115","01-701-1115","Xanomeline Low Dose",54,"Xanomeline Low Dose",54,"2012-11-30","2013-01-23",84,">80",3,"WHITE",1,"M","N","Y","Y","Week 2",2.0,14.0,"2012-12-13","WEEK 2"," 4.000000000000000","Urate (umol/L)","URATE",28.0,"CHEM"," 261.7119999999999891","291.4519999999999982"," -29.74000000000000909","149.000000000000000","446.000000000000000"," 1.7564563758389260","0.5867982062780269"," 1.9560536912751678","0.6534798206278026","Y"," 407.288000000000011","N","N","","",70.0,"NORMAL"," 261.7119999999999891"],["CDISCPILOT01","1118","01-701-1118","Placebo",0,"Placebo",0,"2014-03-12","2014-09-09",52,"<65",1,"WHITE",1,"M","Y","","Y","Week 8",8.0,58.0,"2014-05-08","WEEK 8"," 8.000000000000000","Albumin (g/L)","ALB",33.0,"CHEM","  39.0000000000000000"," 39.0000000000000000","   0.00000000000000000"," 33.000000000000000"," 49.000000000000000"," 1.1818181818181819","0.7959183673469388"," 1.1818181818181819","0.7959183673469388","Y","  34.500000000000000","N","N","","",133.0,"NORMAL","  39.0000000000000000"],["CDISCPILOT01","1118","01-701-1118","Placebo",0,"Placebo",0,"2014-03-12","2014-09-09",52,"<65",1,"WHITE",1,"M","Y","","Y","Week 24",24.0,169.0,"2014-08-27","WEEK 24","12.000000000000000","Alkaline Phosphatase (U/L)","ALP",22.0,"CHEM","  58.0000000000000000"," 65.0000000000000000","  -7.00000000000000000"," 31.000000000000000","110.000000000000000"," 1.8709677419354838","0.5272727272727272"," 2.0967741935483870","0.5909090909090909","Y"," 107.000000000000000","N","N","","Y",259.0,"NORMAL","  58.0000000000000000"],["CDISCPILOT01","1118","01-701-1118","Placebo",0,"Placebo",0,"2014-03-12","2014-09-09",52,"<65",1,"WHITE",1,"M","Y","","Y","End of Treatment",99.0,169.0,"2014-08-27","WEEK 24","12.000000000000000","Alkaline Phosphatase (U/L)","ALP",22.0,"CHEM","  58.0000000000000000"," 65.0000000000000000","  -7.00000000000000000"," 31.000000000000000","110.000000000000000"," 1.8709677419354838","0.5272727272727272"," 2.0967741935483870","0.5909090909090909","Y"," 107.000000000000000","N","N","","Y",259.0,"NORMAL","  58.0000000000000000"],["CDISCPILOT01","1118","01-701-1118","Placebo",0,"Placebo",0,"2014-03-12","2014-09-09",52,"<65",1,"WHITE",1,"M","Y","","Y","Week 2",2.0,15.0,"2014-03-26","WEEK 2"," 4.000000000000000","Alanine Aminotransferase (U/L)","ALT",24.0,"CHEM","   7.0000000000000000"," 15.0000000000000000","  -8.00000000000000000","  6.000000000000000"," 43.000000000000000"," 1.1666666666666667","0.1627906976744186"," 2.5000000000000000","0.3488372093023256","Y","  57.500000000000000","N","N","","",40.0,"NORMAL","   7.0000000000000000"],["CDISCPILOT01","1118","01-701-1118","Placebo",0,"Placebo",0,"2014-03-12","2014-09-09",52,"<65",1,"WHITE",1,"M","Y","","Y","Week 24",24.0,169.0,"2014-08-27","WEEK 24","12.000000000000000","Aspartate Aminotransferase (U/L)","AST",25.0,"CHEM","  11.0000000000000000"," 15.0000000000000000","  -4.00000000000000000"," 11.000000000000000"," 36.000000000000000"," 1.0000000000000000","0.3055555555555556"," 1.3636363636363635","0.4166666666666667","Y","  43.000000000000000","N","N","","Y",261.0,"NORMAL","  11.0000000000000000"],["CDISCPILOT01","1118","01-701-1118","Placebo",0,"Placebo",0,"2014-03-12","2014-09-09",52,"<65",1,"WHITE",1,"M","Y","","Y","End of Treatment",99.0,169.0,"2014-08-27","WEEK 24","12.000000000000000","Aspartate Aminotransferase (U/L)","AST",25.0,"CHEM","  11.0000000000000000"," 15.0000000000000000","  -4.00000000000000000"," 11.000000000000000"," 36.000000000000000"," 1.0000000000000000","0.3055555555555556"," 1.3636363636363635","0.4166666666666667","Y","  43.000000000000000","N","N","","Y",261.0,"NORMAL","  11.0000000000000000"],["CDISCPILOT01","1118","01-701-1118","Placebo",0,"Placebo",0,"2014-03-12","2014-09-09",52,"<65",1,"WHITE",1,"M","Y","","Y","Week 2",2.0,15.0,"2014-03-26","WEEK 2"," 4.000000000000000","Bilirubin (umol/L)","BILI",21.0,"CHEM","   8.5499999999999989"," 11.9700000000000006","  -3.42000000000000171","  3.000000000000000"," 21.000000000000000"," 2.8499999999999996","0.4071428571428571"," 3.9900000000000002","0.5700000000000001","Y","  22.950000000000003","N","N","","",43.0,"NORMAL","   8.5499999999999989"],["CDISCPILOT01","1118","01-701-1118","Placebo",0,"Placebo",0,"2014-03-12","2014-09-09",52,"<65",1,"WHITE",1,"M","Y","","Y","Week 12",12.0,86.0,"2014-06-05","WEEK 12"," 9.000000000000000","Blood Urea Nitrogen (mmol/L)","BUN",26.0,"CHEM","   3.9270000000000000","  5.3550000000000004","  -1.42800000000000038","  1.400000000000000","  8.600000000000000"," 2.8050000000000002","0.4566279069767442"," 3.8250000000000006","0.6226744186046512","Y","   8.972999999999999","N","N","","",169.0,"NORMAL","   3.9270000000000000"],["CDISCPILOT01","1118","01-701-1118","Placebo",0,"Placebo",0,"2014-03-12","2014-09-09",52,"<65",1,"WHITE",1,"M","Y","","Y","Week 8",8.0,58.0,"2014-05-08","WEEK 8"," 8.000000000000000","Calcium (mmol/L)","CA",30.0,"CHEM","   2.1457000000000002","  2.2704499999999999","  -0.12474999999999969","  2.100000000000000","  2.570000000000000"," 1.0217619047619049","0.8349027237354086"," 1.0811666666666666","0.8834435797665370","Y","   1.709299999999999","N","N","","",140.0,"NORMAL","   2.1457000000000002"],["CDISCPILOT01","1118","01-701-1118","Placebo",0,"Placebo",0,"2014-03-12","2014-09-09",52,"<65",1,"WHITE",1,"M","Y","","Y","Week 4",4.0,29.0,"2014-04-09","WEEK 4"," 5.000000000000000","Cholesterol (mmol/L)","CHOL",34.0,"CHEM","   4.5513599999999999","  4.6030799999999994","  -0.05171999999999954","  3.850000000000000","  7.399999999999999"," 1.1821714285714284","0.6150486486486487"," 1.1956051948051947","0.6220378378378378","Y","   6.548640000000000","N","N","","",81.0,"NORMAL","   4.5513599999999999"],["CDISCPILOT01","1118","01-701-1118","Placebo",0,"Placebo",0,"2014-03-12","2014-09-09",52,"<65",1,"WHITE",1,"M","Y","","Y","Week 12",12.0,86.0,"2014-06-05","WEEK 12"," 9.000000000000000","Creatine Kinase (U/L)","CK",35.0,"CHEM","  36.0000000000000000","110.0000000000000000"," -74.00000000000000000"," 22.000000000000000","198.000000000000000"," 1.6363636363636365","0.1818181818181818"," 5.0000000000000000","0.5555555555555556","Y"," 261.000000000000000","N","N","","",172.0,"NORMAL","  36.0000000000000000"],["CDISCPILOT01","1118","01-701-1118","Placebo",0,"Placebo",0,"2014-03-12","2014-09-09",52,"<65",1,"WHITE",1,"M","Y","","Y","Week 4",4.0,29.0,"2014-04-09","WEEK 4"," 5.000000000000000","Chloride (mmol/L)","CL",20.0,"CHEM"," 100.0000000000000000","108.0000000000000000","  -8.00000000000000000"," 94.000000000000000","112.000000000000000"," 1.0638297872340425","0.8928571428571429"," 1.1489361702127661","0.9642857142857143","Y","  68.000000000000000","N","N","","",83.0,"NORMAL"," 100.0000000000000000"],["CDISCPILOT01","1118","01-701-1118","Placebo",0,"Placebo",0,"2014-03-12","2014-09-09",52,"<65",1,"WHITE",1,"M","Y","","Y","Week 2",2.0,15.0,"2014-03-26","WEEK 2"," 4.000000000000000","Creatinine (umol/L)","CREAT",27.0,"CHEM","  88.3999999999999915"," 88.3999999999999915","   0.00000000000000000"," 71.000000000000000","141.000000000000000"," 1.2450704225352112","0.6269503546099290"," 1.2450704225352112","0.6269503546099290","Y"," 123.100000000000009","N","N","","",50.0,"NORMAL","  88.3999999999999915"],["CDISCPILOT01","1118","01-701-1118","Placebo",0,"Placebo",0,"2014-03-12","2014-09-09",52,"<65",1,"WHITE",1,"M","Y","","Y","Week 2",2.0,15.0,"2014-03-26","WEEK 2"," 4.000000000000000","Gamma Glutamyl Transferase (U/L)","GGT",23.0,"CHEM","  13.0000000000000000"," 13.0000000000000000","   0.00000000000000000"," 10.000000000000000"," 61.000000000000000"," 1.3000000000000000","0.2131147540983606"," 1.3000000000000000","0.2131147540983606","Y","  78.500000000000000","N","N","","",52.0,"NORMAL","  13.0000000000000000"],["CDISCPILOT01","1118","01-701-1118","Placebo",0,"Placebo",0,"2014-03-12","2014-09-09",52,"<65",1,"WHITE",1,"M","Y","","Y","Week 8",8.0,58.0,"2014-05-08","WEEK 8"," 8.000000000000000","Glucose (mmol/L)","GLUC",31.0,"CHEM","   3.8301900000000000","  4.0522299999999998","  -0.22203999999999979","  2.800000000000000"," 13.899999999999999"," 1.3679250000000001","0.2755532374100720"," 1.4472250000000000","0.2915273381294964","Y","  17.019810000000000","N","N","","",147.0,"NORMAL","   3.8301900000000000"],["CDISCPILOT01","1118","01-701-1118","Placebo",0,"Placebo",0,"2014-03-12","2014-09-09",52,"<65",1,"WHITE",1,"M","Y","","Y","Week 12",12.0,86.0,"2014-06-05","WEEK 12"," 9.000000000000000","Potassium (mmol/L)","K",19.0,"CHEM","   4.1999999999999993","  4.6999999999999993","  -0.50000000000000000","  3.400000000000000","  5.399999999999999"," 1.2352941176470587","0.7777777777777777"," 1.3823529411764703","0.8703703703703703","Y","   3.900000000000000","N","N","","",181.0,"NORMAL","   4.1999999999999993"],["CDISCPILOT01","1118","01-701-1118","Placebo",0,"Placebo",0,"2014-03-12","2014-09-09",52,"<65",1,"WHITE",1,"M","Y","","Y","Week 12",12.0,86.0,"2014-06-05","WEEK 12"," 9.000000000000000","Phosphate (mmol/L)","PHOS",29.0,"CHEM","   0.9687000000000000","  1.2593099999999999","  -0.29060999999999992","  0.710000000000000","  1.650000000000000"," 1.3643661971830987","0.5870909090909091"," 1.7736760563380281","0.7632181818181818","Y","   1.506300000000000","N","N","","",190.0,"NORMAL","   0.9687000000000000"],["CDISCPILOT01","1118","01-701-1118","Placebo",0,"Placebo",0,"2014-03-12","2014-09-09",52,"<65",1,"WHITE",1,"M","Y","","Y","Week 24",24.0,169.0,"2014-08-27","WEEK 24","12.000000000000000","Protein (g/L)","PROT",32.0,"CHEM","  68.0000000000000000"," 70.0000000000000000","  -2.00000000000000000"," 61.000000000000000"," 84.000000000000000"," 1.1147540983606556","0.8095238095238095"," 1.1475409836065573","0.8333333333333334","Y","  58.000000000000000","N","N","","Y",287.0,"NORMAL","  68.0000000000000000"],["CDISCPILOT01","1118","01-701-1118","Placebo",0,"Placebo",0,"2014-03-12","2014-09-09",52,"<65",1,"WHITE",1,"M","Y","","Y","End of Treatment",99.0,169.0,"2014-08-27","WEEK 24","12.000000000000000","Protein (g/L)","PROT",32.0,"CHEM","  68.0000000000000000"," 70.0000000000000000","  -2.00000000000000000"," 61.000000000000000"," 84.000000000000000"," 1.1147540983606556","0.8095238095238095"," 1.1475409836065573","0.8333333333333334","Y","  58.000000000000000","N","N","","Y",287.0,"NORMAL","  68.0000000000000000"],["CDISCPILOT01","1118","01-701-1118","Placebo",0,"Placebo",0,"2014-03-12","2014-09-09",52,"<65",1,"WHITE",1,"M","Y","","Y","Week 4",4.0,29.0,"2014-04-09","WEEK 4"," 5.000000000000000","Sodium (mmol/L)","SODIUM",18.0,"CHEM"," 134.0000000000000000","141.0000000000000000","  -7.00000000000000000","132.000000000000000","147.000000000000000"," 1.0151515151515151","0.9115646258503401"," 1.0681818181818181","0.9591836734693877","Y","  86.500000000000000","N","N","","",96.0,"NORMAL"," 134.0000000000000000"],["CDISCPILOT01","1118","01-701-1118","Placebo",0,"Placebo",0,"2014-03-12","2014-09-09",52,"<65",1,"WHITE",1,"M","Y","","Y","Week 12",12.0,86.0,"2014-06-05","WEEK 12"," 9.000000000000000","Urate (umol/L)","URATE",28.0,"CHEM"," 226.0240000000000009","249.8160000000000025"," -23.79200000000000159","196.000000000000000","446.000000000000000"," 1.1531836734693877","0.5067802690582960"," 1.2745714285714287","0.5601255605381166","Y"," 442.975999999999999","N","N","","",195.0,"NORMAL"," 226.0240000000000009"],["CDISCPILOT01","1130","01-701-1130","Placebo",0,"Placebo",0,"2014-02-15","2014-08-16",84,">80",3,"WHITE",1,"M","Y","","Y","Week 4",4.0,29.0,"2014-03-15","WEEK 4"," 5.000000000000000","Albumin (g/L)","ALB",33.0,"CHEM","  33.0000000000000000"," 37.0000000000000000","  -4.00000000000000000"," 35.000000000000000"," 46.000000000000000"," 0.9428571428571428","0.7173913043478261"," 1.0571428571428572","0.8043478260869565","Y","  36.000000000000000","N","N","","",73.0,"LOW","  33.0000000000000000"],["CDISCPILOT01","1130","01-701-1130","Placebo",0,"Placebo",0,"2014-02-15","2014-08-16",84,">80",3,"WHITE",1,"M","Y","","Y","Week 8",8.0,57.0,"2014-04-12","WEEK 8"," 8.000000000000000","Alkaline Phosphatase (U/L)","ALP",22.0,"CHEM","  58.0000000000000000"," 61.0000000000000000","  -3.00000000000000000"," 35.000000000000000","115.000000000000000"," 1.6571428571428573","0.5043478260869565"," 1.7428571428571429","0.5304347826086957","Y"," 114.500000000000000","N","N","","",134.0,"NORMAL","  58.0000000000000000"],["CDISCPILOT01","1130","01-701-1130","Placebo",0,"Placebo",0,"2014-02-15","2014-08-16",84,">80",3,"WHITE",1,"M","Y","","Y","Week 8",8.0,57.0,"2014-04-12","WEEK 8"," 8.000000000000000","Alanine Aminotransferase (U/L)","ALT",24.0,"CHEM","  10.0000000000000000"," 15.0000000000000000","  -5.00000000000000000","  6.000000000000000"," 35.000000000000000"," 1.6666666666666667","0.2857142857142857"," 2.5000000000000000","0.4285714285714285","Y","  42.500000000000000","N","N","","",135.0,"NORMAL","  10.0000000000000000"],["CDISCPILOT01","1130","01-701-1130","Placebo",0,"Placebo",0,"2014-02-15","2014-08-16",84,">80",3,"WHITE",1,"M","Y","","Y","Week 8",8.0,57.0,"2014-04-12","WEEK 8"," 8.000000000000000","Aspartate Aminotransferase (U/L)","AST",25.0,"CHEM","  18.0000000000000000"," 24.0000000000000000","  -6.00000000000000000"," 11.000000000000000"," 36.000000000000000"," 1.6363636363636365","0.5000000000000000"," 2.1818181818181817","0.6666666666666666","Y","  36.000000000000000","N","N","","",136.0,"NORMAL","  18.0000000000000000"],["CDISCPILOT01","1130","01-701-1130","Placebo",0,"Placebo",0,"2014-02-15","2014-08-16",84,">80",3,"WHITE",1,"M","Y","","Y","Week 4",4.0,29.0,"2014-03-15","WEEK 4"," 5.000000000000000","Bilirubin (umol/L)","BILI",21.0,"CHEM","   5.1299999999999999","  8.5499999999999989","  -3.41999999999999904","  3.000000000000000"," 21.000000000000000"," 1.7100000000000000","0.2442857142857143"," 2.8499999999999996","0.4071428571428571","Y","  26.370000000000001","N","N","","",78.0,"NORMAL","   5.1299999999999999"],["CDISCPILOT01","1130","01-701-1130","Placebo",0,"Placebo",0,"2014-02-15","2014-08-16",84,">80",3,"WHITE",1,"M","Y","","Y","Week 4",4.0,29.0,"2014-03-15","WEEK 4"," 5.000000000000000","Blood Urea Nitrogen (mmol/L)","BUN",26.0,"CHEM","   9.2820000000000000","  7.1399999999999997","   2.14200000000000035","  1.400000000000000","  8.600000000000000"," 6.6300000000000008","1.0793023255813954"," 5.1000000000000005","0.8302325581395349","Y","   8.582000000000001","N","N","","",79.0,"HIGH","   9.2820000000000000"],["CDISCPILOT01","1130","01-701-1130","Placebo",0,"Placebo",0,"2014-02-15","2014-08-16",84,">80",3,"WHITE",1,"M","Y","","Y","Week 12",12.0,91.0,"2014-05-16","WEEK 12"," 9.000000000000000","Calcium (mmol/L)","CA",30.0,"CHEM","   2.1706500000000002","  2.1207500000000001","   0.04990000000000006","  2.100000000000000","  2.570000000000000"," 1.0336428571428571","0.8446108949416343"," 1.0098809523809524","0.8251945525291829","Y","   1.684349999999999","N","N","","",170.0,"NORMAL","   2.1706500000000002"],["CDISCPILOT01","1130","01-701-1130","Placebo",0,"Placebo",0,"2014-02-15","2014-08-16",84,">80",3,"WHITE",1,"M","Y","","Y","Week 20",20.0,138.0,"2014-07-02","WEEK 20","11.000000000000000","Cholesterol (mmol/L)","CHOL",34.0,"CHEM","   4.4737799999999996","  4.6806599999999996","  -0.20687999999999995","  3.850000000000000","  7.399999999999999"," 1.1620207792207791","0.6045648648648648"," 1.2157558441558440","0.6325216216216216","Y","   6.626220000000000","N","N","","",236.0,"NORMAL","   4.4737799999999996"],["CDISCPILOT01","1130","01-701-1130","Placebo",0,"Placebo",0,"2014-02-15","2014-08-16",84,">80",3,"WHITE",1,"M","Y","","Y","Week 6",6.0,43.0,"2014-03-29","WEEK 6"," 7.000000000000000","Creatine Kinase (U/L)","CK",35.0,"CHEM","  42.0000000000000000"," 57.0000000000000000"," -15.00000000000000000"," 22.000000000000000","198.000000000000000"," 1.9090909090909092","0.2121212121212121"," 2.5909090909090908","0.2878787878787879","Y"," 255.000000000000000","N","N","","",112.0,"NORMAL","  42.0000000000000000"],["CDISCPILOT01","1130","01-701-1130","Placebo",0,"Placebo",0,"2014-02-15","2014-08-16",84,">80",3,"WHITE",1,"M","Y","","Y","Week 6",6.0,43.0,"2014-03-29","WEEK 6"," 7.000000000000000","Chloride (mmol/L)","CL",20.0,"CHEM"," 103.0000000000000000","104.0000000000000000","  -1.00000000000000000"," 94.000000000000000","112.000000000000000"," 1.0957446808510638","0.9196428571428571"," 1.1063829787234043","0.9285714285714286","Y","  65.000000000000000","N","N","","",113.0,"NORMAL"," 103.0000000000000000"],["CDISCPILOT01","1130","01-701-1130","Placebo",0,"Placebo",0,"2014-02-15","2014-08-16",84,">80",3,"WHITE",1,"M","Y","","Y","Week 4",4.0,29.0,"2014-03-15","WEEK 4"," 5.000000000000000","Creatinine (umol/L)","CREAT",27.0,"CHEM"," 176.8000000000000114","123.7600000000000051","  53.04000000000000625"," 71.000000000000000","141.000000000000000"," 2.4901408450704228","1.2539007092198582"," 1.7430985915492958","0.8777304964539008","Y"," 141.300000000000011","N","N","","",84.0,"HIGH"," 176.8000000000000114"],["CDISCPILOT01","1130","01-701-1130","Placebo",0,"Placebo",0,"2014-02-15","2014-08-16",84,">80",3,"WHITE",1,"M","Y","","Y","Week 8",8.0,57.0,"2014-04-12","WEEK 8"," 8.000000000000000","Gamma Glutamyl Transferase (U/L)","GGT",23.0,"CHEM","  10.0000000000000000","  9.0000000000000000","   1.00000000000000000"," 10.000000000000000"," 50.000000000000000"," 1.0000000000000000","0.2000000000000000"," 0.9000000000000000","0.1800000000000000","Y","  65.000000000000000","N","N","","",146.0,"NORMAL","  10.0000000000000000"],["CDISCPILOT01","1130","01-701-1130","Placebo",0,"Placebo",0,"2014-02-15","2014-08-16",84,">80",3,"WHITE",1,"M","Y","","Y","Week 16",16.0,113.0,"2014-06-07","WEEK 16","10.000000000000000","Glucose (mmol/L)","GLUC",31.0,"CHEM","   4.8848799999999999","  5.0514099999999997","  -0.16652999999999984","  2.800000000000000"," 13.899999999999999"," 1.7446000000000002","0.3514302158273381"," 1.8040750000000001","0.3634107913669065","Y","  15.965119999999999","N","N","","",212.0,"NORMAL","   4.8848799999999999"],["CDISCPILOT01","1130","01-701-1130","Placebo",0,"Placebo",0,"2014-02-15","2014-08-16",84,">80",3,"WHITE",1,"M","Y","","Y","Week 16",16.0,113.0,"2014-06-07","WEEK 16","10.000000000000000","Potassium (mmol/L)","K",19.0,"CHEM","   4.0000000000000000","  4.1999999999999993","  -0.19999999999999929","  3.400000000000000","  5.399999999999999"," 1.1764705882352942","0.7407407407407408"," 1.2352941176470587","0.7777777777777777","Y","   4.100000000000000","N","N","","",215.0,"NORMAL","   4.0000000000000000"],["CDISCPILOT01","1130","01-701-1130","Placebo",0,"Placebo",0,"2014-02-15","2014-08-16",84,">80",3,"WHITE",1,"M","Y","","Y","Week 6",6.0,43.0,"2014-03-29","WEEK 6"," 7.000000000000000","Phosphate (mmol/L)","PHOS",29.0,"CHEM","   1.0978600000000001","  1.2593099999999999","  -0.16144999999999987","  0.710000000000000","  1.650000000000000"," 1.5462816901408452","0.6653696969696971"," 1.7736760563380281","0.7632181818181818","Y","   1.377140000000000","N","N","","",127.0,"NORMAL","   1.0978600000000001"],["CDISCPILOT01","1130","01-701-1130","Placebo",0,"Placebo",0,"2014-02-15","2014-08-16",84,">80",3,"WHITE",1,"M","Y","","Y","Week 8",8.0,57.0,"2014-04-12","WEEK 8"," 8.000000000000000","Protein (g/L)","PROT",32.0,"CHEM","  69.0000000000000000"," 73.0000000000000000","  -4.00000000000000000"," 60.000000000000000"," 80.000000000000000"," 1.1499999999999999","0.8625000000000000"," 1.2166666666666666","0.9125000000000000","Y","  51.000000000000000","N","N","","",159.0,"NORMAL","  69.0000000000000000"],["CDISCPILOT01","1130","01-701-1130","Placebo",0,"Placebo",0,"2014-02-15","2014-08-16",84,">80",3,"WHITE",1,"M","Y","","Y","Week 2",2.0,15.0,"2014-03-01","WEEK 2"," 4.000000000000000","Sodium (mmol/L)","SODIUM",18.0,"CHEM"," 138.0000000000000000","140.0000000000000000","  -2.00000000000000000","135.000000000000000","145.000000000000000"," 1.0222222222222221","0.9517241379310345"," 1.0370370370370370","0.9655172413793104","Y","  79.500000000000000","N","N","","",63.0,"NORMAL"," 138.0000000000000000"],["CDISCPILOT01","1130","01-701-1130","Placebo",0,"Placebo",0,"2014-02-15","2014-08-16",84,">80",3,"WHITE",1,"M","Y","","Y","Week 16",16.0,113.0,"2014-06-07","WEEK 16","10.000000000000000","Urate (umol/L)","URATE",28.0,"CHEM"," 440.1519999999999868","392.5679999999999836","  47.58400000000000318","149.000000000000000","446.000000000000000"," 2.9540402684563758","0.9868878923766816"," 2.6346845637583893","0.8801973094170403","Y"," 365.651999999999987","N","N","","",226.0,"NORMAL"," 440.1519999999999868"],["CDISCPILOT01","1133","01-701-1133","Xanomeline High Dose",81,"Xanomeline High Dose",81,"2012-10-28","2013-04-28",81,">80",3,"WHITE",1,"F","Y","","Y","Week 20",20.0,142.0,"2013-03-18","WEEK 20","11.000000000000000","Albumin (g/L)","ALB",33.0,"CHEM","  39.0000000000000000"," 45.0000000000000000","  -6.00000000000000000"," 35.000000000000000"," 46.000000000000000"," 1.1142857142857143","0.8478260869565217"," 1.2857142857142858","0.9782608695652174","Y","  30.000000000000000","N","N","","",210.0,"NORMAL","  39.0000000000000000"],["CDISCPILOT01","1133","01-701-1133","Xanomeline High Dose",81,"Xanomeline High Dose",81,"2012-10-28","2013-04-28",81,">80",3,"WHITE",1,"F","Y","","Y","Week 24",24.0,173.0,"2013-04-18","WEEK 24","12.000000000000000","Alkaline Phosphatase (U/L)","ALP",22.0,"CHEM","  56.0000000000000000"," 59.0000000000000000","  -3.00000000000000000"," 35.000000000000000","115.000000000000000"," 1.6000000000000001","0.4869565217391305"," 1.6857142857142857","0.5130434782608696","Y"," 116.500000000000000","N","N","","Y",241.0,"NORMAL","  56.0000000000000000"],["CDISCPILOT01","1133","01-701-1133","Xanomeline High Dose",81,"Xanomeline High Dose",81,"2012-10-28","2013-04-28",81,">80",3,"WHITE",1,"F","Y","","Y","End of Treatment",99.0,173.0,"2013-04-18","WEEK 24","12.000000000000000","Alkaline Phosphatase (U/L)","ALP",22.0,"CHEM","  56.0000000000000000"," 59.0000000000000000","  -3.00000000000000000"," 35.000000000000000","115.000000000000000"," 1.6000000000000001","0.4869565217391305"," 1.6857142857142857","0.5130434782608696","Y"," 116.500000000000000","N","N","","Y",241.0,"NORMAL","  56.0000000000000000"],["CDISCPILOT01","1133","01-701-1133","Xanomeline High Dose",81,"Xanomeline High Dose",81,"2012-10-28","2013-04-28",81,">80",3,"WHITE",1,"F","Y","","Y","Week 6",6.0,45.0,"2012-12-11","WEEK 6"," 7.000000000000000","Alanine Aminotransferase (U/L)","ALT",24.0,"CHEM","  15.0000000000000000"," 23.0000000000000000","  -8.00000000000000000","  6.000000000000000"," 32.000000000000000"," 2.5000000000000000","0.4687500000000000"," 3.8333333333333335","0.7187500000000000","Y","  33.000000000000000","N","N","","",87.0,"NORMAL","  15.0000000000000000"],["CDISCPILOT01","1133","01-701-1133","Xanomeline High Dose",81,"Xanomeline High Dose",81,"2012-10-28","2013-04-28",81,">80",3,"WHITE",1,"F","Y","","Y","Week 8",8.0,58.0,"2012-12-24","WEEK 8"," 8.000000000000000","Aspartate Aminotransferase (U/L)","AST",25.0,"CHEM","  19.0000000000000000"," 27.0000000000000000","  -8.00000000000000000","  9.000000000000000"," 34.000000000000000"," 2.1111111111111112","0.5588235294117647"," 3.0000000000000000","0.7941176470588235","Y","  32.000000000000000","N","N","","",118.0,"NORMAL","  19.0000000000000000"],["CDISCPILOT01","1133","01-701-1133","Xanomeline High Dose",81,"Xanomeline High Dose",81,"2012-10-28","2013-04-28",81,">80",3,"WHITE",1,"F","Y","","Y","Week 4",4.0,30.0,"2012-11-26","WEEK 4"," 5.000000000000000","Bilirubin (umol/L)","BILI",21.0,"CHEM","  10.2599999999999998"," 15.3900000000000006","  -5.13000000000000078","  3.000000000000000"," 21.000000000000000"," 3.4199999999999999","0.4885714285714285"," 5.1299999999999999","0.7328571428571429","Y","  21.240000000000002","N","N","","",60.0,"NORMAL","  10.2599999999999998"],["CDISCPILOT01","1133","01-701-1133","Xanomeline High Dose",81,"Xanomeline High Dose",81,"2012-10-28","2013-04-28",81,">80",3,"WHITE",1,"F","Y","","Y","Week 20",20.0,142.0,"2013-03-18","WEEK 20","11.000000000000000","Blood Urea Nitrogen (mmol/L)","BUN",26.0,"CHEM","   4.6410000000000000","  5.7119999999999997","  -1.07099999999999973","  1.400000000000000","  8.600000000000000"," 3.3150000000000004","0.5396511627906977"," 4.0800000000000001","0.6641860465116279","Y","   8.258999999999999","N","N","","",216.0,"NORMAL","   4.6410000000000000"],["CDISCPILOT01","1133","01-701-1133","Xanomeline High Dose",81,"Xanomeline High Dose",81,"2012-10-28","2013-04-28",81,">80",3,"WHITE",1,"F","Y","","Y","Week 6",6.0,45.0,"2012-12-11","WEEK 6"," 7.000000000000000","Calcium (mmol/L)","CA",30.0,"CHEM","   2.1956000000000002","  2.3203499999999999","  -0.12474999999999969","  2.100000000000000","  2.570000000000000"," 1.0455238095238095","0.8543190661478600"," 1.1049285714285713","0.9028599221789884","Y","   1.659399999999999","N","N","","",92.0,"NORMAL","   2.1956000000000002"],["CDISCPILOT01","1133","01-701-1133","Xanomeline High Dose",81,"Xanomeline High Dose",81,"2012-10-28","2013-04-28",81,">80",3,"WHITE",1,"F","Y","","Y","Week 16",16.0,114.0,"2013-02-18","WEEK 16","10.000000000000000","Cholesterol (mmol/L)","CHOL",34.0,"CHEM","   5.0168399999999993","  5.3530199999999999","  -0.33618000000000059","  4.029999999999999","  7.760000000000000"," 1.2448734491315137","0.6465000000000000"," 1.3282928039702235","0.6898221649484536","Y","   6.623160000000001","N","N","","",188.0,"NORMAL","   5.0168399999999993"],["CDISCPILOT01","1133","01-701-1133","Xanomeline High Dose",81,"Xanomeline High Dose",81,"2012-10-28","2013-04-28",81,">80",3,"WHITE",1,"F","Y","","Y","Week 6",6.0,45.0,"2012-12-11","WEEK 6"," 7.000000000000000","Creatine Kinase (U/L)","CK",35.0,"CHEM","  60.0000000000000000"," 78.0000000000000000"," -18.00000000000000000"," 21.000000000000000","169.000000000000000"," 2.8571428571428572","0.3550295857988165"," 3.7142857142857144","0.4615384615384616","Y"," 193.500000000000000","N","N","","",94.0,"NORMAL","  60.0000000000000000"],["CDISCPILOT01","1133","01-701-1133","Xanomeline High Dose",81,"Xanomeline High Dose",81,"2012-10-28","2013-04-28",81,">80",3,"WHITE",1,"F","Y","","Y","Week 6",6.0,45.0,"2012-12-11","WEEK 6"," 7.000000000000000","Chloride (mmol/L)","CL",20.0,"CHEM"," 102.0000000000000000","105.0000000000000000","  -3.00000000000000000"," 94.000000000000000","112.000000000000000"," 1.0851063829787233","0.9107142857142857"," 1.1170212765957446","0.9375000000000000","Y","  66.000000000000000","N","N","","",95.0,"NORMAL"," 102.0000000000000000"],["CDISCPILOT01","1133","01-701-1133","Xanomeline High Dose",81,"Xanomeline High Dose",81,"2012-10-28","2013-04-28",81,">80",3,"WHITE",1,"F","Y","","Y","Week 4",4.0,30.0,"2012-11-26","WEEK 4"," 5.000000000000000","Creatinine (umol/L)","CREAT",27.0,"CHEM","  97.2399999999999949"," 97.2399999999999949","   0.00000000000000000"," 62.000000000000000","124.000000000000000"," 1.5683870967741935","0.7841935483870968"," 1.5683870967741935","0.7841935483870968","Y","  88.760000000000005","N","N","","",66.0,"NORMAL","  97.2399999999999949"],["CDISCPILOT01","1133","01-701-1133","Xanomeline High Dose",81,"Xanomeline High Dose",81,"2012-10-28","2013-04-28",81,">80",3,"WHITE",1,"F","Y","","Y","Week 4",4.0,30.0,"2012-11-26","WEEK 4"," 5.000000000000000","Gamma Glutamyl Transferase (U/L)","GGT",23.0,"CHEM","  13.0000000000000000"," 15.0000000000000000","  -2.00000000000000000","  5.000000000000000"," 50.000000000000000"," 2.6000000000000001","0.2600000000000000"," 3.0000000000000000","0.3000000000000000","Y","  62.000000000000000","N","N","","",68.0,"NORMAL","  13.0000000000000000"],["CDISCPILOT01","1133","01-701-1133","Xanomeline High Dose",81,"Xanomeline High Dose",81,"2012-10-28","2013-04-28",81,">80",3,"WHITE",1,"F","Y","","Y","Week 12",12.0,87.0,"2013-01-22","WEEK 12"," 9.000000000000000","Glucose (mmol/L)","GLUC",31.0,"CHEM","   3.7746800000000000","  5.4954899999999993","  -1.72080999999999928","  2.800000000000000"," 13.899999999999999"," 1.3481000000000001","0.2715597122302159"," 1.9626749999999999","0.3953589928057554","Y","  17.075319999999998","N","N","","",160.0,"NORMAL","   3.7746800000000000"],["CDISCPILOT01","1133","01-701-1133","Xanomeline High Dose",81,"Xanomeline High Dose",81,"2012-10-28","2013-04-28",81,">80",3,"WHITE",1,"F","Y","","Y","Week 12",12.0,87.0,"2013-01-22","WEEK 12"," 9.000000000000000","Potassium (mmol/L)","K",19.0,"CHEM","   3.8999999999999999","  4.3999999999999986","  -0.49999999999999867","  3.400000000000000","  5.399999999999999"," 1.1470588235294117","0.7222222222222223"," 1.2941176470588232","0.8148148148148147","Y","   4.199999999999999","N","N","","",163.0,"NORMAL","   3.8999999999999999"],["CDISCPILOT01","1133","01-701-1133","Xanomeline High Dose",81,"Xanomeline High Dose",81,"2012-10-28","2013-04-28",81,">80",3,"WHITE",1,"F","Y","","Y","Week 4",4.0,30.0,"2012-11-26","WEEK 4"," 5.000000000000000","Phosphate (mmol/L)","PHOS",29.0,"CHEM","   1.0655699999999999","  1.1947300000000001","  -0.12916000000000016","  0.710000000000000","  1.650000000000000"," 1.5008028169014085","0.6457999999999999"," 1.6827183098591552","0.7240787878787880","Y","   1.409430000000000","N","N","","",79.0,"NORMAL","   1.0655699999999999"],["CDISCPILOT01","1133","01-701-1133","Xanomeline High Dose",81,"Xanomeline High Dose",81,"2012-10-28","2013-04-28",81,">80",3,"WHITE",1,"F","Y","","Y","Week 4",4.0,30.0,"2012-11-26","WEEK 4"," 5.000000000000000","Protein (g/L)","PROT",32.0,"CHEM","  69.0000000000000000"," 71.0000000000000000","  -2.00000000000000000"," 60.000000000000000"," 80.000000000000000"," 1.1499999999999999","0.8625000000000000"," 1.1833333333333333","0.8875000000000000","Y","  51.000000000000000","N","N","","",81.0,"NORMAL","  69.0000000000000000"],["CDISCPILOT01","1133","01-701-1133","Xanomeline High Dose",81,"Xanomeline High Dose",81,"2012-10-28","2013-04-28",81,">80",3,"WHITE",1,"F","Y","","Y","Week 4",4.0,30.0,"2012-11-26","WEEK 4"," 5.000000000000000","Sodium (mmol/L)","SODIUM",18.0,"CHEM"," 147.0000000000000000","142.0000000000000000","   5.00000000000000000","135.000000000000000","145.000000000000000"," 1.0888888888888888","1.0137931034482759"," 1.0518518518518518","0.9793103448275862","Y","  79.500000000000000","N","N","","",78.0,"HIGH"," 147.0000000000000000"],["CDISCPILOT01","1133","01-701-1133","Xanomeline High Dose",81,"Xanomeline High Dose",81,"2012-10-28","2013-04-28",81,">80",3,"WHITE",1,"F","Y","","Y","Week 16",16.0,114.0,"2013-02-18","WEEK 16","10.000000000000000","Urate (umol/L)","URATE",28.0,"CHEM"," 178.4399999999999977","255.7640000000000100"," -77.32400000000001228","149.000000000000000","446.000000000000000"," 1.1975838926174496","0.4000896860986547"," 1.7165369127516779","0.5734618834080718","Y"," 490.560000000000002","N","N","","",208.0,"NORMAL"," 178.4399999999999977"],["CDISCPILOT01","1146","01-701-1146","Xanomeline High Dose",81,"Xanomeline High Dose",81,"2013-05-20","2013-06-26",75,"65-80",2,"WHITE",1,"F","N","Y","Y","Week 4",4.0,28.0,"2013-06-16","WEEK 4"," 5.000000000000000","Albumin (g/L)","ALB",33.0,"CHEM","  35.0000000000000000"," 37.0000000000000000","  -2.00000000000000000"," 35.000000000000000"," 46.000000000000000"," 1.0000000000000000","0.7608695652173914"," 1.0571428571428572","0.8043478260869565","Y","  34.000000000000000","N","N","","",73.0,"NORMAL","  35.0000000000000000"],["CDISCPILOT01","1146","01-701-1146","Xanomeline High Dose",81,"Xanomeline High Dose",81,"2013-05-20","2013-06-26",75,"65-80",2,"WHITE",1,"F","N","Y","Y","Week 6",6.0,42.0,"2013-06-30","WEEK 6"," 7.000000000000000","Alkaline Phosphatase (U/L)","ALP",22.0,"CHEM","  29.0000000000000000"," 33.0000000000000000","  -4.00000000000000000"," 35.000000000000000","115.000000000000000"," 0.8285714285714286","0.2521739130434782"," 0.9428571428571428","0.2869565217391304","Y"," 143.500000000000000","N","N","","Y",104.0,"LOW","  29.0000000000000000"],["CDISCPILOT01","1146","01-701-1146","Xanomeline High Dose",81,"Xanomeline High Dose",81,"2013-05-20","2013-06-26",75,"65-80",2,"WHITE",1,"F","N","Y","Y","End of Treatment",99.0,42.0,"2013-06-30","WEEK 6"," 7.000000000000000","Alkaline Phosphatase (U/L)","ALP",22.0,"CHEM","  29.0000000000000000"," 33.0000000000000000","  -4.00000000000000000"," 35.000000000000000","115.000000000000000"," 0.8285714285714286","0.2521739130434782"," 0.9428571428571428","0.2869565217391304","Y"," 143.500000000000000","N","N","","Y",104.0,"LOW","  29.0000000000000000"],["CDISCPILOT01","1146","01-701-1146","Xanomeline High Dose",81,"Xanomeline High Dose",81,"2013-05-20","2013-06-26",75,"65-80",2,"WHITE",1,"F","N","Y","Y","Week 6",6.0,42.0,"2013-06-30","WEEK 6"," 7.000000000000000","Alanine Aminotransferase (U/L)","ALT",24.0,"CHEM","  13.0000000000000000"," 15.0000000000000000","  -2.00000000000000000","  6.000000000000000"," 32.000000000000000"," 2.1666666666666665","0.4062500000000000"," 2.5000000000000000","0.4687500000000000","Y","  35.000000000000000","N","N","","Y",105.0,"NORMAL","  13.0000000000000000"],["CDISCPILOT01","1146","01-701-1146","Xanomeline High Dose",81,"Xanomeline High Dose",81,"2013-05-20","2013-06-26",75,"65-80",2,"WHITE",1,"F","N","Y","Y","End of Treatment",99.0,42.0,"2013-06-30","WEEK 6"," 7.000000000000000","Alanine Aminotransferase (U/L)","ALT",24.0,"CHEM","  13.0000000000000000"," 15.0000000000000000","  -2.00000000000000000","  6.000000000000000"," 32.000000000000000"," 2.1666666666666665","0.4062500000000000"," 2.5000000000000000","0.4687500000000000","Y","  35.000000000000000","N","N","","Y",105.0,"NORMAL","  13.0000000000000000"],["CDISCPILOT01","1146","01-701-1146","Xanomeline High Dose",81,"Xanomeline High Dose",81,"2013-05-20","2013-06-26",75,"65-80",2,"WHITE",1,"F","N","Y","Y","Week 4",4.0,28.0,"2013-06-16","WEEK 4"," 5.000000000000000","Aspartate Aminotransferase (U/L)","AST",25.0,"CHEM","  19.0000000000000000"," 14.0000000000000000","   5.00000000000000000","  9.000000000000000"," 34.000000000000000"," 2.1111111111111112","0.5588235294117647"," 1.5555555555555556","0.4117647058823529","Y","  32.000000000000000","N","N","","",76.0,"NORMAL","  19.0000000000000000"],["CDISCPILOT01","1146","01-701-1146","Xanomeline High Dose",81,"Xanomeline High Dose",81,"2013-05-20","2013-06-26",75,"65-80",2,"WHITE",1,"F","N","Y","Y","Week 4",4.0,28.0,"2013-06-16","WEEK 4"," 5.000000000000000","Bilirubin (umol/L)","BILI",21.0,"CHEM","   5.1299999999999999","  5.1299999999999999","   0.00000000000000000","  3.000000000000000"," 21.000000000000000"," 1.7100000000000000","0.2442857142857143"," 1.7100000000000000","0.2442857142857143","Y","  26.370000000000001","N","N","","",78.0,"NORMAL","   5.1299999999999999"],["CDISCPILOT01","1146","01-701-1146","Xanomeline High Dose",81,"Xanomeline High Dose",81,"2013-05-20","2013-06-26",75,"65-80",2,"WHITE",1,"F","N","Y","Y","Week 2",2.0,15.0,"2013-06-03","WEEK 2"," 4.000000000000000","Blood Urea Nitrogen (mmol/L)","BUN",26.0,"CHEM","   4.6410000000000000","  3.5699999999999998","   1.07100000000000017","  1.400000000000000","  8.600000000000000"," 3.3150000000000004","0.5396511627906977"," 2.5500000000000003","0.4151162790697674","Y","   8.258999999999999","N","N","","",44.0,"NORMAL","   4.6410000000000000"],["CDISCPILOT01","1146","01-701-1146","Xanomeline High Dose",81,"Xanomeline High Dose",81,"2013-05-20","2013-06-26",75,"65-80",2,"WHITE",1,"F","N","Y","Y","Week 2",2.0,15.0,"2013-06-03","WEEK 2"," 4.000000000000000","Calcium (mmol/L)","CA",30.0,"CHEM","   2.2454999999999998","  2.3203499999999999","  -0.07485000000000008","  2.100000000000000","  2.570000000000000"," 1.0692857142857142","0.8737354085603113"," 1.1049285714285713","0.9028599221789884","Y","   1.609500000000000","N","N","","",45.0,"NORMAL","   2.2454999999999998"],["CDISCPILOT01","1146","01-701-1146","Xanomeline High Dose",81,"Xanomeline High Dose",81,"2013-05-20","2013-06-26",75,"65-80",2,"WHITE",1,"F","N","Y","Y","Week 4",4.0,28.0,"2013-06-16","WEEK 4"," 5.000000000000000","Cholesterol (mmol/L)","CHOL",34.0,"CHEM","   5.1719999999999997","  6.1029599999999986","  -0.93095999999999890","  4.029999999999999","  7.760000000000000"," 1.2833746898263028","0.6664948453608247"," 1.5143821339950372","0.7864639175257730","Y","   6.468000000000001","N","N","","",81.0,"NORMAL","   5.1719999999999997"],["CDISCPILOT01","1146","01-701-1146","Xanomeline High Dose",81,"Xanomeline High Dose",81,"2013-05-20","2013-06-26",75,"65-80",2,"WHITE",1,"F","N","Y","Y","Week 2",2.0,15.0,"2013-06-03","WEEK 2"," 4.000000000000000","Creatine Kinase (U/L)","CK",35.0,"CHEM","  67.0000000000000000"," 42.0000000000000000","  25.00000000000000000"," 21.000000000000000","169.000000000000000"," 3.1904761904761907","0.3964497041420119"," 2.0000000000000000","0.2485207100591716","Y"," 186.500000000000000","N","N","","",47.0,"NORMAL","  67.0000000000000000"],["CDISCPILOT01","1146","01-701-1146","Xanomeline High Dose",81,"Xanomeline High Dose",81,"2013-05-20","2013-06-26",75,"65-80",2,"WHITE",1,"F","N","Y","Y","Week 6",6.0,42.0,"2013-06-30","WEEK 6"," 7.000000000000000","Chloride (mmol/L)","CL",20.0,"CHEM"," 106.0000000000000000","103.0000000000000000","   3.00000000000000000"," 94.000000000000000","112.000000000000000"," 1.1276595744680851","0.9464285714285714"," 1.0957446808510638","0.9196428571428571","Y","  62.000000000000000","N","N","","Y",113.0,"NORMAL"," 106.0000000000000000"],["CDISCPILOT01","1146","01-701-1146","Xanomeline High Dose",81,"Xanomeline High Dose",81,"2013-05-20","2013-06-26",75,"65-80",2,"WHITE",1,"F","N","Y","Y","End of Treatment",99.0,42.0,"2013-06-30","WEEK 6"," 7.000000000000000","Chloride (mmol/L)","CL",20.0,"CHEM"," 106.0000000000000000","103.0000000000000000","   3.00000000000000000"," 94.000000000000000","112.000000000000000"," 1.1276595744680851","0.9464285714285714"," 1.0957446808510638","0.9196428571428571","Y","  62.000000000000000","N","N","","Y",113.0,"NORMAL"," 106.0000000000000000"],["CDISCPILOT01","1146","01-701-1146","Xanomeline High Dose",81,"Xanomeline High Dose",81,"2013-05-20","2013-06-26",75,"65-80",2,"WHITE",1,"F","N","Y","Y","Week 4",4.0,28.0,"2013-06-16","WEEK 4"," 5.000000000000000","Creatinine (umol/L)","CREAT",27.0,"CHEM","  70.7199999999999989"," 79.5599999999999881","  -8.83999999999998920"," 62.000000000000000","124.000000000000000"," 1.1406451612903226","0.5703225806451613"," 1.2832258064516127","0.6416129032258063","Y"," 115.280000000000001","N","N","","",84.0,"NORMAL","  70.7199999999999989"],["CDISCPILOT01","1146","01-701-1146","Xanomeline High Dose",81,"Xanomeline High Dose",81,"2013-05-20","2013-06-26",75,"65-80",2,"WHITE",1,"F","N","Y","Y","Week 4",4.0,28.0,"2013-06-16","WEEK 4"," 5.000000000000000","Gamma Glutamyl Transferase (U/L)","GGT",23.0,"CHEM","  11.0000000000000000","  9.0000000000000000","   2.00000000000000000","  5.000000000000000"," 50.000000000000000"," 2.2000000000000002","0.2200000000000000"," 1.8000000000000000","0.1800000000000000","Y","  64.000000000000000","N","N","","",86.0,"NORMAL","  11.0000000000000000"],["CDISCPILOT01","1146","01-701-1146","Xanomeline High Dose",81,"Xanomeline High Dose",81,"2013-05-20","2013-06-26",75,"65-80",2,"WHITE",1,"F","N","Y","Y","Week 4",4.0,28.0,"2013-06-16","WEEK 4"," 5.000000000000000","Glucose (mmol/L)","GLUC",31.0,"CHEM","   4.6628400000000001","  4.7183500000000000","  -0.05550999999999995","  2.800000000000000"," 13.899999999999999"," 1.6653000000000002","0.3354561151079137"," 1.6851250000000002","0.3394496402877698","Y","  16.187159999999999","N","N","","",87.0,"NORMAL","   4.6628400000000001"],["CDISCPILOT01","1146","01-701-1146","Xanomeline High Dose",81,"Xanomeline High Dose",81,"2013-05-20","2013-06-26",75,"65-80",2,"WHITE",1,"F","N","Y","Y","Week 6",6.0,42.0,"2013-06-30","WEEK 6"," 7.000000000000000","Potassium (mmol/L)","K",19.0,"CHEM","   4.1999999999999993","  4.2999999999999998","  -0.10000000000000053","  3.400000000000000","  5.399999999999999"," 1.2352941176470587","0.7777777777777777"," 1.2647058823529411","0.7962962962962964","Y","   3.900000000000000","N","N","","Y",121.0,"NORMAL","   4.1999999999999993"],["CDISCPILOT01","1146","01-701-1146","Xanomeline High Dose",81,"Xanomeline High Dose",81,"2013-05-20","2013-06-26",75,"65-80",2,"WHITE",1,"F","N","Y","Y","End of Treatment",99.0,42.0,"2013-06-30","WEEK 6"," 7.000000000000000","Potassium (mmol/L)","K",19.0,"CHEM","   4.1999999999999993","  4.2999999999999998","  -0.10000000000000053","  3.400000000000000","  5.399999999999999"," 1.2352941176470587","0.7777777777777777"," 1.2647058823529411","0.7962962962962964","Y","   3.900000000000000","N","N","","Y",121.0,"NORMAL","   4.1999999999999993"],["CDISCPILOT01","1146","01-701-1146","Xanomeline High Dose",81,"Xanomeline High Dose",81,"2013-05-20","2013-06-26",75,"65-80",2,"WHITE",1,"F","N","Y","Y","Week 2",2.0,15.0,"2013-06-03","WEEK 2"," 4.000000000000000","Phosphate (mmol/L)","PHOS",29.0,"CHEM","   1.3238900000000000","  1.3238900000000000","   0.00000000000000000","  0.710000000000000","  1.650000000000000"," 1.8646338028169016","0.8023575757575758"," 1.8646338028169016","0.8023575757575758","Y","   1.151110000000000","N","N","","",65.0,"NORMAL","   1.3238900000000000"],["CDISCPILOT01","1146","01-701-1146","Xanomeline High Dose",81,"Xanomeline High Dose",81,"2013-05-20","2013-06-26",75,"65-80",2,"WHITE",1,"F","N","Y","Y","Week 4",4.0,28.0,"2013-06-16","WEEK 4"," 5.000000000000000","Protein (g/L)","PROT",32.0,"CHEM","  69.0000000000000000"," 72.0000000000000000","  -3.00000000000000000"," 60.000000000000000"," 80.000000000000000"," 1.1499999999999999","0.8625000000000000"," 1.2000000000000000","0.9000000000000000","Y","  51.000000000000000","N","N","","",99.0,"NORMAL","  69.0000000000000000"],["CDISCPILOT01","1146","01-701-1146","Xanomeline High Dose",81,"Xanomeline High Dose",81,"2013-05-20","2013-06-26",75,"65-80",2,"WHITE",1,"F","N","Y","Y","Week 4",4.0,28.0,"2013-06-16","WEEK 4"," 5.000000000000000","Sodium (mmol/L)","SODIUM",18.0,"CHEM"," 138.0000000000000000","136.0000000000000000","   2.00000000000000000","135.000000000000000","145.000000000000000"," 1.0222222222222221","0.9517241379310345"," 1.0074074074074073","0.9379310344827586","Y","  79.500000000000000","N","N","","",96.0,"NORMAL"," 138.0000000000000000"],["CDISCPILOT01","1146","01-701-1146","Xanomeline High Dose",81,"Xanomeline High Dose",81,"2013-05-20","2013-06-26",75,"65-80",2,"WHITE",1,"F","N","Y","Y","Week 2",2.0,15.0,"2013-06-03","WEEK 2"," 4.000000000000000","Urate (umol/L)","URATE",28.0,"CHEM"," 333.0880000000000223","315.2440000000000282","  17.84399999999999409","149.000000000000000","446.000000000000000"," 2.2354899328859061","0.7468340807174888"," 2.1157315436241610","0.7068251121076233","Y"," 335.911999999999978","N","N","","",70.0,"NORMAL"," 333.0880000000000223"],["CDISCPILOT01","1148","01-701-1148","Xanomeline High Dose",81,"Xanomeline High Dose",81,"2013-08-23","2014-02-20",57,"<65",1,"WHITE",1,"M","Y","","Y","Week 4",4.0,28.0,"2013-09-19","WEEK 4"," 5.000000000000000","Albumin (g/L)","ALB",33.0,"CHEM","  38.0000000000000000"," 41.0000000000000000","  -3.00000000000000000"," 33.000000000000000"," 49.000000000000000"," 1.1515151515151516","0.7755102040816326"," 1.2424242424242424","0.8367346938775511","Y","  35.500000000000000","N","N","","",73.0,"NORMAL","  38.0000000000000000"],["CDISCPILOT01","1148","01-701-1148","Xanomeline High Dose",81,"Xanomeline High Dose",81,"2013-08-23","2014-02-20",57,"<65",1,"WHITE",1,"M","Y","","Y","Week 6",6.0,42.0,"2013-10-03","WEEK 6"," 7.000000000000000","Alkaline Phosphatase (U/L)","ALP",22.0,"CHEM","  76.0000000000000000"," 88.0000000000000000"," -12.00000000000000000"," 31.000000000000000","110.000000000000000"," 2.4516129032258065","0.6909090909090909"," 2.8387096774193550","0.8000000000000000","Y","  89.000000000000000","N","N","","",104.0,"NORMAL","  76.0000000000000000"],["CDISCPILOT01","1148","01-701-1148","Xanomeline High Dose",81,"Xanomeline High Dose",81,"2013-08-23","2014-02-20",57,"<65",1,"WHITE",1,"M","Y","","Y","Week 2",2.0,14.0,"2013-09-05","WEEK 2"," 4.000000000000000","Alanine Aminotransferase (U/L)","ALT",24.0,"CHEM","  41.0000000000000000"," 34.0000000000000000","   7.00000000000000000","  6.000000000000000"," 43.000000000000000"," 6.8333333333333330","0.9534883720930233"," 5.6666666666666670","0.7906976744186046","Y","  38.000000000000000","N","N","","",40.0,"NORMAL","  41.0000000000000000"],["CDISCPILOT01","1148","01-701-1148","Xanomeline High Dose",81,"Xanomeline High Dose",81,"2013-08-23","2014-02-20",57,"<65",1,"WHITE",1,"M","Y","","Y","Week 6",6.0,42.0,"2013-10-03","WEEK 6"," 7.000000000000000","Aspartate Aminotransferase (U/L)","AST",25.0,"CHEM","  22.0000000000000000"," 25.0000000000000000","  -3.00000000000000000"," 11.000000000000000"," 36.000000000000000"," 2.0000000000000000","0.6111111111111112"," 2.2727272727272729","0.6944444444444444","Y","  32.000000000000000","N","N","","",106.0,"NORMAL","  22.0000000000000000"],["CDISCPILOT01","1148","01-701-1148","Xanomeline High Dose",81,"Xanomeline High Dose",81,"2013-08-23","2014-02-20",57,"<65",1,"WHITE",1,"M","Y","","Y","Week 12",12.0,87.0,"2013-11-17","WEEK 12"," 9.000000000000000","Bilirubin (umol/L)","BILI",21.0,"CHEM","   6.8399999999999999","  8.5499999999999989","  -1.70999999999999908","  3.000000000000000"," 21.000000000000000"," 2.2799999999999998","0.3257142857142857"," 2.8499999999999996","0.4071428571428571","Y","  24.660000000000000","N","N","","",168.0,"NORMAL","   6.8399999999999999"],["CDISCPILOT01","1148","01-701-1148","Xanomeline High Dose",81,"Xanomeline High Dose",81,"2013-08-23","2014-02-20",57,"<65",1,"WHITE",1,"M","Y","","Y","Week 12",12.0,87.0,"2013-11-17","WEEK 12"," 9.000000000000000","Blood Urea Nitrogen (mmol/L)","BUN",26.0,"CHEM","   3.2130000000000001","  4.6410000000000000","  -1.42799999999999994","  1.400000000000000","  8.600000000000000"," 2.2950000000000004","0.3736046511627907"," 3.3150000000000004","0.5396511627906977","Y","   9.686999999999998","N","N","","",169.0,"NORMAL","   3.2130000000000001"],["CDISCPILOT01","1148","01-701-1148","Xanomeline High Dose",81,"Xanomeline High Dose",81,"2013-08-23","2014-02-20",57,"<65",1,"WHITE",1,"M","Y","","Y","Week 12",12.0,87.0,"2013-11-17","WEEK 12"," 9.000000000000000","Calcium (mmol/L)","CA",30.0,"CHEM","   2.0958000000000001","  2.1956000000000002","  -0.09980000000000011","  2.100000000000000","  2.570000000000000"," 0.9980000000000000","0.8154863813229573"," 1.0455238095238095","0.8543190661478600","Y","   1.759199999999999","N","N","","",170.0,"NORMAL","   2.0958000000000001"],["CDISCPILOT01","1148","01-701-1148","Xanomeline High Dose",81,"Xanomeline High Dose",81,"2013-08-23","2014-02-20",57,"<65",1,"WHITE",1,"M","Y","","Y","Week 16",16.0,113.0,"2013-12-13","WEEK 16","10.000000000000000","Cholesterol (mmol/L)","CHOL",34.0,"CHEM","   4.7323800000000000","  5.9995200000000004","  -1.26714000000000038","  3.850000000000000","  7.399999999999999"," 1.2291896103896103","0.6395108108108108"," 1.5583168831168832","0.8107459459459461","Y","   6.367620000000000","N","N","","",206.0,"NORMAL","   4.7323800000000000"],["CDISCPILOT01","1148","01-701-1148","Xanomeline High Dose",81,"Xanomeline High Dose",81,"2013-08-23","2014-02-20",57,"<65",1,"WHITE",1,"M","Y","","Y","Week 12",12.0,87.0,"2013-11-17","WEEK 12"," 9.000000000000000","Creatine Kinase (U/L)","CK",35.0,"CHEM"," 194.0000000000000000","125.0000000000000000","  69.00000000000000000"," 22.000000000000000","198.000000000000000"," 8.8181818181818183","0.9797979797979798"," 5.6818181818181817","0.6313131313131313","Y"," 183.000000000000000","N","N","","",172.0,"NORMAL"," 194.0000000000000000"],["CDISCPILOT01","1148","01-701-1148","Xanomeline High Dose",81,"Xanomeline High Dose",81,"2013-08-23","2014-02-20",57,"<65",1,"WHITE",1,"M","Y","","Y","Week 20",20.0,141.0,"2014-01-10","WEEK 20","11.000000000000000","Chloride (mmol/L)","CL",20.0,"CHEM"," 103.0000000000000000","109.0000000000000000","  -6.00000000000000000"," 94.000000000000000","112.000000000000000"," 1.0957446808510638","0.9196428571428571"," 1.1595744680851063","0.9732142857142857","Y","  65.000000000000000","N","N","","",238.0,"NORMAL"," 103.0000000000000000"],["CDISCPILOT01","1148","01-701-1148","Xanomeline High Dose",81,"Xanomeline High Dose",81,"2013-08-23","2014-02-20",57,"<65",1,"WHITE",1,"M","Y","","Y","Week 2",2.0,14.0,"2013-09-05","WEEK 2"," 4.000000000000000","Creatinine (umol/L)","CREAT",27.0,"CHEM"," 106.0799999999999983","106.0799999999999983","   0.00000000000000000"," 71.000000000000000","141.000000000000000"," 1.4940845070422535","0.7523404255319149"," 1.4940845070422535","0.7523404255319149","Y"," 105.420000000000002","N","N","","",50.0,"NORMAL"," 106.0799999999999983"],["CDISCPILOT01","1148","01-701-1148","Xanomeline High Dose",81,"Xanomeline High Dose",81,"2013-08-23","2014-02-20",57,"<65",1,"WHITE",1,"M","Y","","Y","Week 8",8.0,57.0,"2013-10-18","WEEK 8"," 8.000000000000000","Gamma Glutamyl Transferase (U/L)","GGT",23.0,"CHEM","  29.0000000000000000"," 43.0000000000000000"," -14.00000000000000000"," 10.000000000000000"," 61.000000000000000"," 2.8999999999999999","0.4754098360655737"," 4.2999999999999998","0.7049180327868853","Y","  62.500000000000000","N","N","","",146.0,"NORMAL","  29.0000000000000000"],["CDISCPILOT01","1148","01-701-1148","Xanomeline High Dose",81,"Xanomeline High Dose",81,"2013-08-23","2014-02-20",57,"<65",1,"WHITE",1,"M","Y","","Y","Week 2",2.0,14.0,"2013-09-05","WEEK 2"," 4.000000000000000","Glucose (mmol/L)","GLUC",31.0,"CHEM","   3.9967199999999998","  5.2734500000000004","  -1.27673000000000059","  2.800000000000000"," 13.899999999999999"," 1.4274000000000000","0.2875338129496403"," 1.8833750000000002","0.3793848920863310","Y","  16.853279999999998","N","N","","",53.0,"NORMAL","   3.9967199999999998"],["CDISCPILOT01","1148","01-701-1148","Xanomeline High Dose",81,"Xanomeline High Dose",81,"2013-08-23","2014-02-20",57,"<65",1,"WHITE",1,"M","Y","","Y","Week 4",4.0,28.0,"2013-09-19","WEEK 4"," 5.000000000000000","Potassium (mmol/L)","K",19.0,"CHEM","   3.3999999999999999","  4.0000000000000000","  -0.60000000000000009","  3.400000000000000","  5.399999999999999"," 1.0000000000000000","0.6296296296296297"," 1.1764705882352942","0.7407407407407408","Y","   4.699999999999999","N","N","","",90.0,"NORMAL","   3.3999999999999999"],["CDISCPILOT01","1148","01-701-1148","Xanomeline High Dose",81,"Xanomeline High Dose",81,"2013-08-23","2014-02-20",57,"<65",1,"WHITE",1,"M","Y","","Y","Week 4",4.0,28.0,"2013-09-19","WEEK 4"," 5.000000000000000","Phosphate (mmol/L)","PHOS",29.0,"CHEM","   0.9041199999999999","  1.1624399999999999","  -0.25831999999999999","  0.710000000000000","  1.650000000000000"," 1.2734084507042254","0.5479515151515152"," 1.6372394366197183","0.7045090909090909","Y","   1.570880000000000","N","N","","",97.0,"NORMAL","   0.9041199999999999"],["CDISCPILOT01","1148","01-701-1148","Xanomeline High Dose",81,"Xanomeline High Dose",81,"2013-08-23","2014-02-20",57,"<65",1,"WHITE",1,"M","Y","","Y","Week 16",16.0,113.0,"2013-12-13","WEEK 16","10.000000000000000","Protein (g/L)","PROT",32.0,"CHEM","  70.0000000000000000"," 76.0000000000000000","  -6.00000000000000000"," 61.000000000000000"," 84.000000000000000"," 1.1475409836065573","0.8333333333333334"," 1.2459016393442623","0.9047619047619048","Y","  56.000000000000000","N","N","","",224.0,"NORMAL","  70.0000000000000000"],["CDISCPILOT01","1148","01-701-1148","Xanomeline High Dose",81,"Xanomeline High Dose",81,"2013-08-23","2014-02-20",57,"<65",1,"WHITE",1,"M","Y","","Y","Week 20",20.0,141.0,"2014-01-10","WEEK 20","11.000000000000000","Sodium (mmol/L)","SODIUM",18.0,"CHEM"," 136.0000000000000000","139.0000000000000000","  -3.00000000000000000","132.000000000000000","147.000000000000000"," 1.0303030303030303","0.9251700680272109"," 1.0530303030303030","0.9455782312925171","Y","  84.500000000000000","N","N","","",251.0,"NORMAL"," 136.0000000000000000"],["CDISCPILOT01","1148","01-701-1148","Xanomeline High Dose",81,"Xanomeline High Dose",81,"2013-08-23","2014-02-20",57,"<65",1,"WHITE",1,"M","Y","","Y","Week 12",12.0,87.0,"2013-11-17","WEEK 12"," 9.000000000000000","Urate (umol/L)","URATE",28.0,"CHEM"," 243.8679999999999950","279.5559999999999832"," -35.68799999999998818","196.000000000000000","446.000000000000000"," 1.2442244897959183","0.5467892376681615"," 1.4263061224489795","0.6268071748878924","Y"," 425.132000000000005","N","N","","",195.0,"NORMAL"," 243.8679999999999950"],["CDISCPILOT01","1153","01-701-1153","Placebo",0,"Placebo",0,"2013-09-23","2014-03-16",79,"65-80",2,"WHITE",1,"F","Y","","Y","Week 4",4.0,27.0,"2013-10-19","WEEK 4"," 5.000000000000000","Albumin (g/L)","ALB",33.0,"CHEM","  40.0000000000000000"," 39.0000000000000000","   1.00000000000000000"," 35.000000000000000"," 46.000000000000000"," 1.1428571428571428","0.8695652173913043"," 1.1142857142857143","0.8478260869565217","Y","  29.000000000000000","N","N","","",73.0,"NORMAL","  40.0000000000000000"],["CDISCPILOT01","1153","01-701-1153","Placebo",0,"Placebo",0,"2013-09-23","2014-03-16",79,"65-80",2,"WHITE",1,"F","Y","","Y","Week 16",16.0,108.0,"2014-01-08","WEEK 16","10.000000000000000","Alkaline Phosphatase (U/L)","ALP",22.0,"CHEM","  53.0000000000000000"," 65.0000000000000000"," -12.00000000000000000"," 35.000000000000000","115.000000000000000"," 1.5142857142857142","0.4608695652173913"," 1.8571428571428572","0.5652173913043478","Y"," 119.500000000000000","N","N","","",214.0,"NORMAL","  53.0000000000000000"],["CDISCPILOT01","1153","01-701-1153","Placebo",0,"Placebo",0,"2013-09-23","2014-03-16",79,"65-80",2,"WHITE",1,"F","Y","","Y","Week 8",8.0,57.0,"2013-11-18","WEEK 8"," 8.000000000000000","Alanine Aminotransferase (U/L)","ALT",24.0,"CHEM","  11.0000000000000000"," 13.0000000000000000","  -2.00000000000000000","  6.000000000000000"," 32.000000000000000"," 1.8333333333333333","0.3437500000000000"," 2.1666666666666665","0.4062500000000000","Y","  37.000000000000000","N","N","","",140.0,"NORMAL","  11.0000000000000000"],["CDISCPILOT01","1153","01-701-1153","Placebo",0,"Placebo",0,"2013-09-23","2014-03-16",79,"65-80",2,"WHITE",1,"F","Y","","Y","Week 8",8.0,57.0,"2013-11-18","WEEK 8"," 8.000000000000000","Aspartate Aminotransferase (U/L)","AST",25.0,"CHEM","  21.0000000000000000"," 24.0000000000000000","  -3.00000000000000000","  9.000000000000000"," 34.000000000000000"," 2.3333333333333335","0.6176470588235294"," 2.6666666666666665","0.7058823529411765","Y","  30.000000000000000","N","N","","",141.0,"NORMAL","  21.0000000000000000"],["CDISCPILOT01","1153","01-701-1153","Placebo",0,"Placebo",0,"2013-09-23","2014-03-16",79,"65-80",2,"WHITE",1,"F","Y","","Y","Week 8",8.0,57.0,"2013-11-18","WEEK 8"," 8.000000000000000","Bilirubin (umol/L)","BILI",21.0,"CHEM","   5.1299999999999999","  5.1299999999999999","   0.00000000000000000","  3.000000000000000"," 21.000000000000000"," 1.7100000000000000","0.2442857142857143"," 1.7100000000000000","0.2442857142857143","Y","  26.370000000000001","N","N","","",143.0,"NORMAL","   5.1299999999999999"],["CDISCPILOT01","1153","01-701-1153","Placebo",0,"Placebo",0,"2013-09-23","2014-03-16",79,"65-80",2,"WHITE",1,"F","Y","","Y","Week 8",8.0,57.0,"2013-11-18","WEEK 8"," 8.000000000000000","Blood Urea Nitrogen (mmol/L)","BUN",26.0,"CHEM","   3.5699999999999998","  3.9270000000000000","  -0.35700000000000021","  1.400000000000000","  8.600000000000000"," 2.5500000000000003","0.4151162790697674"," 2.8050000000000002","0.4566279069767442","Y","   9.329999999999998","N","N","","",144.0,"NORMAL","   3.5699999999999998"],["CDISCPILOT01","1153","01-701-1153","Placebo",0,"Placebo",0,"2013-09-23","2014-03-16",79,"65-80",2,"WHITE",1,"F","Y","","Y","Week 6",6.0,43.0,"2013-11-04","WEEK 6"," 7.000000000000000","Calcium (mmol/L)","CA",30.0,"CHEM","   2.1956000000000002","  2.3203499999999999","  -0.12474999999999969","  2.100000000000000","  2.570000000000000"," 1.0455238095238095","0.8543190661478600"," 1.1049285714285713","0.9028599221789884","Y","   1.659399999999999","N","N","","",115.0,"NORMAL","   2.1956000000000002"],["CDISCPILOT01","1153","01-701-1153","Placebo",0,"Placebo",0,"2013-09-23","2014-03-16",79,"65-80",2,"WHITE",1,"F","Y","","Y","Week 16",16.0,108.0,"2014-01-08","WEEK 16","10.000000000000000","Cholesterol (mmol/L)","CHOL",34.0,"CHEM","   8.0165999999999986","  6.9821999999999997","   1.03439999999999888","  4.029999999999999","  7.760000000000000"," 1.9892307692307691","1.0330670103092783"," 1.7325558312655089","0.8997680412371134","Y","   6.001599999999999","N","N","","",221.0,"HIGH","   8.0165999999999986"],["CDISCPILOT01","1153","01-701-1153","Placebo",0,"Placebo",0,"2013-09-23","2014-03-16",79,"65-80",2,"WHITE",1,"F","Y","","Y","Week 4",4.0,27.0,"2013-10-19","WEEK 4"," 5.000000000000000","Creatine Kinase (U/L)","CK",35.0,"CHEM","  48.0000000000000000"," 65.0000000000000000"," -17.00000000000000000"," 21.000000000000000","169.000000000000000"," 2.2857142857142856","0.2840236686390533"," 3.0952380952380953","0.3846153846153846","Y"," 205.500000000000000","N","N","","",82.0,"NORMAL","  48.0000000000000000"],["CDISCPILOT01","1153","01-701-1153","Placebo",0,"Placebo",0,"2013-09-23","2014-03-16",79,"65-80",2,"WHITE",1,"F","Y","","Y","Week 4",4.0,27.0,"2013-10-19","WEEK 4"," 5.000000000000000","Chloride (mmol/L)","CL",20.0,"CHEM"," 103.0000000000000000","107.0000000000000000","  -4.00000000000000000"," 94.000000000000000","112.000000000000000"," 1.0957446808510638","0.9196428571428571"," 1.1382978723404256","0.9553571428571429","Y","  65.000000000000000","N","N","","",83.0,"NORMAL"," 103.0000000000000000"],["CDISCPILOT01","1153","01-701-1153","Placebo",0,"Placebo",0,"2013-09-23","2014-03-16",79,"65-80",2,"WHITE",1,"F","Y","","Y","Week 20",20.0,142.0,"2014-02-11","WEEK 20","11.000000000000000","Creatinine (umol/L)","CREAT",27.0,"CHEM","  70.7199999999999989"," 88.3999999999999915"," -17.67999999999999261"," 62.000000000000000","124.000000000000000"," 1.1406451612903226","0.5703225806451613"," 1.4258064516129030","0.7129032258064515","Y"," 115.280000000000001","N","N","","",254.0,"NORMAL","  70.7199999999999989"],["CDISCPILOT01","1153","01-701-1153","Placebo",0,"Placebo",0,"2013-09-23","2014-03-16",79,"65-80",2,"WHITE",1,"F","Y","","Y","Week 6",6.0,43.0,"2013-11-04","WEEK 6"," 7.000000000000000","Gamma Glutamyl Transferase (U/L)","GGT",23.0,"CHEM","   7.0000000000000000"," 11.0000000000000000","  -4.00000000000000000","  5.000000000000000"," 50.000000000000000"," 1.3999999999999999","0.1400000000000000"," 2.2000000000000002","0.2200000000000000","Y","  68.000000000000000","N","N","","",121.0,"NORMAL","   7.0000000000000000"],["CDISCPILOT01","1153","01-701-1153","Placebo",0,"Placebo",0,"2013-09-23","2014-03-16",79,"65-80",2,"WHITE",1,"F","Y","","Y","Week 4",4.0,27.0,"2013-10-19","WEEK 4"," 5.000000000000000","Glucose (mmol/L)","GLUC",31.0,"CHEM","   4.7738600000000000","  5.4954899999999993","  -0.72162999999999933","  2.800000000000000"," 13.899999999999999"," 1.7049500000000002","0.3434431654676259"," 1.9626749999999999","0.3953589928057554","Y","  16.076139999999999","N","N","","",87.0,"NORMAL","   4.7738600000000000"],["CDISCPILOT01","1153","01-701-1153","Placebo",0,"Placebo",0,"2013-09-23","2014-03-16",79,"65-80",2,"WHITE",1,"F","Y","","Y","Week 16",16.0,108.0,"2014-01-08","WEEK 16","10.000000000000000","Potassium (mmol/L)","K",19.0,"CHEM","   3.7000000000000002","  3.7000000000000002","   0.00000000000000000","  3.400000000000000","  5.399999999999999"," 1.0882352941176472","0.6851851851851852"," 1.0882352941176472","0.6851851851851852","Y","   4.399999999999999","N","N","","",230.0,"NORMAL","   3.7000000000000002"],["CDISCPILOT01","1153","01-701-1153","Placebo",0,"Placebo",0,"2013-09-23","2014-03-16",79,"65-80",2,"WHITE",1,"F","Y","","Y","Week 8",8.0,57.0,"2013-11-18","WEEK 8"," 8.000000000000000","Phosphate (mmol/L)","PHOS",29.0,"CHEM","   0.7749600000000000","  0.8718300000000000","  -0.09687000000000001","  0.710000000000000","  1.650000000000000"," 1.0914929577464789","0.4696727272727273"," 1.2279295774647887","0.5283818181818182","Y","   1.700040000000000","N","N","","",162.0,"NORMAL","   0.7749600000000000"],["CDISCPILOT01","1153","01-701-1153","Placebo",0,"Placebo",0,"2013-09-23","2014-03-16",79,"65-80",2,"WHITE",1,"F","Y","","Y","Week 6",6.0,43.0,"2013-11-04","WEEK 6"," 7.000000000000000","Protein (g/L)","PROT",32.0,"CHEM","  65.0000000000000000"," 69.0000000000000000","  -4.00000000000000000"," 60.000000000000000"," 80.000000000000000"," 1.0833333333333333","0.8125000000000000"," 1.1499999999999999","0.8625000000000000","Y","  55.000000000000000","N","N","","",134.0,"NORMAL","  65.0000000000000000"],["CDISCPILOT01","1153","01-701-1153","Placebo",0,"Placebo",0,"2013-09-23","2014-03-16",79,"65-80",2,"WHITE",1,"F","Y","","Y","Week 4",4.0,27.0,"2013-10-19","WEEK 4"," 5.000000000000000","Sodium (mmol/L)","SODIUM",18.0,"CHEM"," 137.0000000000000000","140.0000000000000000","  -3.00000000000000000","135.000000000000000","145.000000000000000"," 1.0148148148148148","0.9448275862068966"," 1.0370370370370370","0.9655172413793104","Y","  80.500000000000000","N","N","","",96.0,"NORMAL"," 137.0000000000000000"],["CDISCPILOT01","1153","01-701-1153","Placebo",0,"Placebo",0,"2013-09-23","2014-03-16",79,"65-80",2,"WHITE",1,"F","Y","","Y","Week 20",20.0,142.0,"2014-02-11","WEEK 20","11.000000000000000","Urate (umol/L)","URATE",28.0,"CHEM"," 243.8679999999999950","279.5559999999999832"," -35.68799999999998818","149.000000000000000","446.000000000000000"," 1.6366979865771811","0.5467892376681615"," 1.8762147651006711","0.6268071748878924","Y"," 425.132000000000005","N","N","","",271.0,"NORMAL"," 243.8679999999999950"],["CDISCPILOT01","1180","01-701-1180","Xanomeline High Dose",81,"Xanomeline High Dose",81,"2013-02-12","2013-03-18",56,"<65",1,"WHITE",1,"M","N","Y","Y","Week 4",4.0,28.0,"2013-03-11","WEEK 4"," 5.000000000000000","Albumin (g/L)","ALB",33.0,"CHEM","  39.0000000000000000"," 41.0000000000000000","  -2.00000000000000000"," 33.000000000000000"," 49.000000000000000"," 1.1818181818181819","0.7959183673469388"," 1.2424242424242424","0.8367346938775511","Y","  34.500000000000000","N","N","","",73.0,"NORMAL","  39.0000000000000000"],["CDISCPILOT01","1180","01-701-1180","Xanomeline High Dose",81,"Xanomeline High Dose",81,"2013-02-12","2013-03-18",56,"<65",1,"WHITE",1,"M","N","Y","Y","Week 4",4.0,28.0,"2013-03-11","WEEK 4"," 5.000000000000000","Alkaline Phosphatase (U/L)","ALP",22.0,"CHEM","  66.0000000000000000"," 77.0000000000000000"," -11.00000000000000000"," 31.000000000000000","110.000000000000000"," 2.1290322580645160","0.6000000000000000"," 2.4838709677419355","0.7000000000000000","Y","  99.000000000000000","N","N","","",74.0,"NORMAL","  66.0000000000000000"],["CDISCPILOT01","1180","01-701-1180","Xanomeline High Dose",81,"Xanomeline High Dose",81,"2013-02-12","2013-03-18",56,"<65",1,"WHITE",1,"M","N","Y","Y","Week 6",6.0,40.0,"2013-03-23","WEEK 6"," 7.000000000000000","Alanine Aminotransferase (U/L)","ALT",24.0,"CHEM","  19.0000000000000000"," 29.0000000000000000"," -10.00000000000000000","  6.000000000000000"," 43.000000000000000"," 3.1666666666666665","0.4418604651162791"," 4.8333333333333330","0.6744186046511628","Y","  45.500000000000000","N","N","","Y",105.0,"NORMAL","  19.0000000000000000"],["CDISCPILOT01","1180","01-701-1180","Xanomeline High Dose",81,"Xanomeline High Dose",81,"2013-02-12","2013-03-18",56,"<65",1,"WHITE",1,"M","N","Y","Y","End of Treatment",99.0,40.0,"2013-03-23","WEEK 6"," 7.000000000000000","Alanine Aminotransferase (U/L)","ALT",24.0,"CHEM","  19.0000000000000000"," 29.0000000000000000"," -10.00000000000000000","  6.000000000000000"," 43.000000000000000"," 3.1666666666666665","0.4418604651162791"," 4.8333333333333330","0.6744186046511628","Y","  45.500000000000000","N","N","","Y",105.0,"NORMAL","  19.0000000000000000"],["CDISCPILOT01","1180","01-701-1180","Xanomeline High Dose",81,"Xanomeline High Dose",81,"2013-02-12","2013-03-18",56,"<65",1,"WHITE",1,"M","N","Y","Y","Week 4",4.0,28.0,"2013-03-11","WEEK 4"," 5.000000000000000","Aspartate Aminotransferase (U/L)","AST",25.0,"CHEM","  17.0000000000000000"," 21.0000000000000000","  -4.00000000000000000"," 11.000000000000000"," 36.000000000000000"," 1.5454545454545454","0.4722222222222222"," 1.9090909090909092","0.5833333333333334","Y","  37.000000000000000","N","N","","",76.0,"NORMAL","  17.0000000000000000"],["CDISCPILOT01","1180","01-701-1180","Xanomeline High Dose",81,"Xanomeline High Dose",81,"2013-02-12","2013-03-18",56,"<65",1,"WHITE",1,"M","N","Y","Y","Week 2",2.0,14.0,"2013-02-25","WEEK 2"," 4.000000000000000","Bilirubin (umol/L)","BILI",21.0,"CHEM","   8.5499999999999989"," 11.9700000000000006","  -3.42000000000000171","  3.000000000000000"," 21.000000000000000"," 2.8499999999999996","0.4071428571428571"," 3.9900000000000002","0.5700000000000001","Y","  22.950000000000003","N","N","","",43.0,"NORMAL","   8.5499999999999989"],["CDISCPILOT01","1180","01-701-1180","Xanomeline High Dose",81,"Xanomeline High Dose",81,"2013-02-12","2013-03-18",56,"<65",1,"WHITE",1,"M","N","Y","Y","Week 6",6.0,40.0,"2013-03-23","WEEK 6"," 7.000000000000000","Blood Urea Nitrogen (mmol/L)","BUN",26.0,"CHEM","   5.7119999999999997","  5.7119999999999997","   0.00000000000000000","  1.400000000000000","  8.600000000000000"," 4.0800000000000001","0.6641860465116279"," 4.0800000000000001","0.6641860465116279","Y","   7.187999999999999","N","N","","Y",109.0,"NORMAL","   5.7119999999999997"],["CDISCPILOT01","1180","01-701-1180","Xanomeline High Dose",81,"Xanomeline High Dose",81,"2013-02-12","2013-03-18",56,"<65",1,"WHITE",1,"M","N","Y","Y","End of Treatment",99.0,40.0,"2013-03-23","WEEK 6"," 7.000000000000000","Blood Urea Nitrogen (mmol/L)","BUN",26.0,"CHEM","   5.7119999999999997","  5.7119999999999997","   0.00000000000000000","  1.400000000000000","  8.600000000000000"," 4.0800000000000001","0.6641860465116279"," 4.0800000000000001","0.6641860465116279","Y","   7.187999999999999","N","N","","Y",109.0,"NORMAL","   5.7119999999999997"],["CDISCPILOT01","1180","01-701-1180","Xanomeline High Dose",81,"Xanomeline High Dose",81,"2013-02-12","2013-03-18",56,"<65",1,"WHITE",1,"M","N","Y","Y","Week 2",2.0,14.0,"2013-02-25","WEEK 2"," 4.000000000000000","Calcium (mmol/L)","CA",30.0,"CHEM","   2.3203499999999999","  2.3203499999999999","   0.00000000000000000","  2.100000000000000","  2.570000000000000"," 1.1049285714285713","0.9028599221789884"," 1.1049285714285713","0.9028599221789884","Y","   1.534650000000000","N","N","","",45.0,"NORMAL","   2.3203499999999999"],["CDISCPILOT01","1180","01-701-1180","Xanomeline High Dose",81,"Xanomeline High Dose",81,"2013-02-12","2013-03-18",56,"<65",1,"WHITE",1,"M","N","Y","Y","Week 2",2.0,14.0,"2013-02-25","WEEK 2"," 4.000000000000000","Cholesterol (mmol/L)","CHOL",34.0,"CHEM","   5.9219399999999993","  6.4391400000000001","  -0.51720000000000077","  3.850000000000000","  7.399999999999999"," 1.5381662337662336","0.8002621621621622"," 1.6725038961038960","0.8701540540540541","Y","   5.178060000000000","N","N","","",46.0,"NORMAL","   5.9219399999999993"],["CDISCPILOT01","1180","01-701-1180","Xanomeline High Dose",81,"Xanomeline High Dose",81,"2013-02-12","2013-03-18",56,"<65",1,"WHITE",1,"M","N","Y","Y","Week 6",6.0,40.0,"2013-03-23","WEEK 6"," 7.000000000000000","Creatine Kinase (U/L)","CK",35.0,"CHEM"," 117.0000000000000000","127.0000000000000000"," -10.00000000000000000"," 22.000000000000000","198.000000000000000"," 5.3181818181818183","0.5909090909090909"," 5.7727272727272725","0.6414141414141414","Y"," 180.000000000000000","N","N","","Y",112.0,"NORMAL"," 117.0000000000000000"],["CDISCPILOT01","1180","01-701-1180","Xanomeline High Dose",81,"Xanomeline High Dose",81,"2013-02-12","2013-03-18",56,"<65",1,"WHITE",1,"M","N","Y","Y","End of Treatment",99.0,40.0,"2013-03-23","WEEK 6"," 7.000000000000000","Creatine Kinase (U/L)","CK",35.0,"CHEM"," 117.0000000000000000","127.0000000000000000"," -10.00000000000000000"," 22.000000000000000","198.000000000000000"," 5.3181818181818183","0.5909090909090909"," 5.7727272727272725","0.6414141414141414","Y"," 180.000000000000000","N","N","","Y",112.0,"NORMAL"," 117.0000000000000000"],["CDISCPILOT01","1180","01-701-1180","Xanomeline High Dose",81,"Xanomeline High Dose",81,"2013-02-12","2013-03-18",56,"<65",1,"WHITE",1,"M","N","Y","Y","Week 2",2.0,14.0,"2013-02-25","WEEK 2"," 4.000000000000000","Chloride (mmol/L)","CL",20.0,"CHEM","  98.0000000000000000","109.0000000000000000"," -11.00000000000000000"," 94.000000000000000","112.000000000000000"," 1.0425531914893618","0.8750000000000000"," 1.1595744680851063","0.9732142857142857","Y","  70.000000000000000","N","N","","",48.0,"NORMAL","  98.0000000000000000"],["CDISCPILOT01","1180","01-701-1180","Xanomeline High Dose",81,"Xanomeline High Dose",81,"2013-02-12","2013-03-18",56,"<65",1,"WHITE",1,"M","N","Y","Y","Week 2",2.0,14.0,"2013-02-25","WEEK 2"," 4.000000000000000","Creatinine (umol/L)","CREAT",27.0,"CHEM"," 114.9200000000000017","114.9200000000000017","   0.00000000000000000"," 71.000000000000000","141.000000000000000"," 1.6185915492957748","0.8150354609929078"," 1.6185915492957748","0.8150354609929078","Y","  96.579999999999998","N","N","","",50.0,"NORMAL"," 114.9200000000000017"],["CDISCPILOT01","1180","01-701-1180","Xanomeline High Dose",81,"Xanomeline High Dose",81,"2013-02-12","2013-03-18",56,"<65",1,"WHITE",1,"M","N","Y","Y","Week 6",6.0,40.0,"2013-03-23","WEEK 6"," 7.000000000000000","Gamma Glutamyl Transferase (U/L)","GGT",23.0,"CHEM","  24.0000000000000000"," 39.0000000000000000"," -15.00000000000000000"," 10.000000000000000"," 61.000000000000000"," 2.3999999999999999","0.3934426229508197"," 3.8999999999999999","0.6393442622950820","Y","  67.500000000000000","N","N","","Y",117.0,"NORMAL","  24.0000000000000000"],["CDISCPILOT01","1180","01-701-1180","Xanomeline High Dose",81,"Xanomeline High Dose",81,"2013-02-12","2013-03-18",56,"<65",1,"WHITE",1,"M","N","Y","Y","End of Treatment",99.0,40.0,"2013-03-23","WEEK 6"," 7.000000000000000","Gamma Glutamyl Transferase (U/L)","GGT",23.0,"CHEM","  24.0000000000000000"," 39.0000000000000000"," -15.00000000000000000"," 10.000000000000000"," 61.000000000000000"," 2.3999999999999999","0.3934426229508197"," 3.8999999999999999","0.6393442622950820","Y","  67.500000000000000","N","N","","Y",117.0,"NORMAL","  24.0000000000000000"],["CDISCPILOT01","1180","01-701-1180","Xanomeline High Dose",81,"Xanomeline High Dose",81,"2013-02-12","2013-03-18",56,"<65",1,"WHITE",1,"M","N","Y","Y","Week 6",6.0,40.0,"2013-03-23","WEEK 6"," 7.000000000000000","Glucose (mmol/L)","GLUC",31.0,"CHEM","   4.5518199999999993","  4.8848799999999999","  -0.33306000000000058","  2.800000000000000"," 13.899999999999999"," 1.6256499999999998","0.3274690647482014"," 1.7446000000000002","0.3514302158273381","Y","  16.298179999999999","N","N","","Y",118.0,"NORMAL","   4.5518199999999993"],["CDISCPILOT01","1180","01-701-1180","Xanomeline High Dose",81,"Xanomeline High Dose",81,"2013-02-12","2013-03-18",56,"<65",1,"WHITE",1,"M","N","Y","Y","End of Treatment",99.0,40.0,"2013-03-23","WEEK 6"," 7.000000000000000","Glucose (mmol/L)","GLUC",31.0,"CHEM","   4.5518199999999993","  4.8848799999999999","  -0.33306000000000058","  2.800000000000000"," 13.899999999999999"," 1.6256499999999998","0.3274690647482014"," 1.7446000000000002","0.3514302158273381","Y","  16.298179999999999","N","N","","Y",118.0,"NORMAL","   4.5518199999999993"],["CDISCPILOT01","1180","01-701-1180","Xanomeline High Dose",81,"Xanomeline High Dose",81,"2013-02-12","2013-03-18",56,"<65",1,"WHITE",1,"M","N","Y","Y","Week 6",6.0,40.0,"2013-03-23","WEEK 6"," 7.000000000000000","Potassium (mmol/L)","K",19.0,"CHEM","   4.2999999999999998","  4.5000000000000000","  -0.20000000000000018","  3.400000000000000","  5.399999999999999"," 1.2647058823529411","0.7962962962962964"," 1.3235294117647058","0.8333333333333334","Y","   3.800000000000000","N","N","","Y",121.0,"NORMAL","   4.2999999999999998"],["CDISCPILOT01","1180","01-701-1180","Xanomeline High Dose",81,"Xanomeline High Dose",81,"2013-02-12","2013-03-18",56,"<65",1,"WHITE",1,"M","N","Y","Y","End of Treatment",99.0,40.0,"2013-03-23","WEEK 6"," 7.000000000000000","Potassium (mmol/L)","K",19.0,"CHEM","   4.2999999999999998","  4.5000000000000000","  -0.20000000000000018","  3.400000000000000","  5.399999999999999"," 1.2647058823529411","0.7962962962962964"," 1.3235294117647058","0.8333333333333334","Y","   3.800000000000000","N","N","","Y",121.0,"NORMAL","   4.2999999999999998"],["CDISCPILOT01","1180","01-701-1180","Xanomeline High Dose",81,"Xanomeline High Dose",81,"2013-02-12","2013-03-18",56,"<65",1,"WHITE",1,"M","N","Y","Y","Week 2",2.0,14.0,"2013-02-25","WEEK 2"," 4.000000000000000","Phosphate (mmol/L)","PHOS",29.0,"CHEM","   1.0978600000000001","  0.9687000000000000","   0.12916000000000005","  0.710000000000000","  1.650000000000000"," 1.5462816901408452","0.6653696969696971"," 1.3643661971830987","0.5870909090909091","Y","   1.377140000000000","N","N","","",65.0,"NORMAL","   1.0978600000000001"],["CDISCPILOT01","1180","01-701-1180","Xanomeline High Dose",81,"Xanomeline High Dose",81,"2013-02-12","2013-03-18",56,"<65",1,"WHITE",1,"M","N","Y","Y","Week 2",2.0,14.0,"2013-02-25","WEEK 2"," 4.000000000000000","Protein (g/L)","PROT",32.0,"CHEM","  70.0000000000000000"," 75.0000000000000000","  -5.00000000000000000"," 61.000000000000000"," 84.000000000000000"," 1.1475409836065573","0.8333333333333334"," 1.2295081967213115","0.8928571428571429","Y","  56.000000000000000","N","N","","",67.0,"NORMAL","  70.0000000000000000"],["CDISCPILOT01","1180","01-701-1180","Xanomeline High Dose",81,"Xanomeline High Dose",81,"2013-02-12","2013-03-18",56,"<65",1,"WHITE",1,"M","N","Y","Y","Week 2",2.0,14.0,"2013-02-25","WEEK 2"," 4.000000000000000","Sodium (mmol/L)","SODIUM",18.0,"CHEM"," 133.0000000000000000","138.0000000000000000","  -5.00000000000000000","132.000000000000000","147.000000000000000"," 1.0075757575757576","0.9047619047619048"," 1.0454545454545454","0.9387755102040817","Y","  87.500000000000000","N","N","","",63.0,"NORMAL"," 133.0000000000000000"],["CDISCPILOT01","1180","01-701-1180","Xanomeline High Dose",81,"Xanomeline High Dose",81,"2013-02-12","2013-03-18",56,"<65",1,"WHITE",1,"M","N","Y","Y","Week 2",2.0,14.0,"2013-02-25","WEEK 2"," 4.000000000000000","Urate (umol/L)","URATE",28.0,"CHEM"," 481.7880000000000109","469.8919999999999959","  11.89600000000001501","196.000000000000000","446.000000000000000"," 2.4581020408163266","1.0802421524663677"," 2.3974081632653061","1.0535695067264574","Y"," 383.788000000000011","N","N","","",70.0,"HIGH"," 481.7880000000000109"],["CDISCPILOT01","1181","01-701-1181","Xanomeline High Dose",81,"Xanomeline High Dose",81,"2013-12-05","2013-12-09",79,"65-80",2,"WHITE",1,"F","N","Y","Y","Week 2",2.0,8.0,"2013-12-12","WEEK 2"," 4.000000000000000","Albumin (g/L)","ALB",33.0,"CHEM","  39.0000000000000000"," 32.0000000000000000","   7.00000000000000000"," 35.000000000000000"," 46.000000000000000"," 1.1142857142857143","0.8478260869565217"," 0.9142857142857143","0.6956521739130435","Y","  30.000000000000000","N","N","","Y",38.0,"NORMAL","  39.0000000000000000"],["CDISCPILOT01","1181","01-701-1181","Xanomeline High Dose",81,"Xanomeline High Dose",81,"2013-12-05","2013-12-09",79,"65-80",2,"WHITE",1,"F","N","Y","Y","End of Treatment",99.0,8.0,"2013-12-12","WEEK 2"," 4.000000000000000","Albumin (g/L)","ALB",33.0,"CHEM","  39.0000000000000000"," 32.0000000000000000","   7.00000000000000000"," 35.000000000000000"," 46.000000000000000"," 1.1142857142857143","0.8478260869565217"," 0.9142857142857143","0.6956521739130435","Y","  30.000000000000000","N","N","","Y",38.0,"NORMAL","  39.0000000000000000"],["CDISCPILOT01","1181","01-701-1181","Xanomeline High Dose",81,"Xanomeline High Dose",81,"2013-12-05","2013-12-09",79,"65-80",2,"WHITE",1,"F","N","Y","Y","Week 2",2.0,8.0,"2013-12-12","WEEK 2"," 4.000000000000000","Alkaline Phosphatase (U/L)","ALP",22.0,"CHEM"," 105.0000000000000000"," 79.0000000000000000","  26.00000000000000000"," 35.000000000000000","115.000000000000000"," 3.0000000000000000","0.9130434782608695"," 2.2571428571428571","0.6869565217391305","Y","  87.500000000000000","N","N","","Y",39.0,"NORMAL"," 105.0000000000000000"],["CDISCPILOT01","1181","01-701-1181","Xanomeline High Dose",81,"Xanomeline High Dose",81,"2013-12-05","2013-12-09",79,"65-80",2,"WHITE",1,"F","N","Y","Y","End of Treatment",99.0,8.0,"2013-12-12","WEEK 2"," 4.000000000000000","Alkaline Phosphatase (U/L)","ALP",22.0,"CHEM"," 105.0000000000000000"," 79.0000000000000000","  26.00000000000000000"," 35.000000000000000","115.000000000000000"," 3.0000000000000000","0.9130434782608695"," 2.2571428571428571","0.6869565217391305","Y","  87.500000000000000","N","N","","Y",39.0,"NORMAL"," 105.0000000000000000"],["CDISCPILOT01","1181","01-701-1181","Xanomeline High Dose",81,"Xanomeline High Dose",81,"2013-12-05","2013-12-09",79,"65-80",2,"WHITE",1,"F","N","Y","Y","Week 2",2.0,8.0,"2013-12-12","WEEK 2"," 4.000000000000000","Alanine Aminotransferase (U/L)","ALT",24.0,"CHEM","  14.0000000000000000"," 18.0000000000000000","  -4.00000000000000000","  6.000000000000000"," 32.000000000000000"," 2.3333333333333335","0.4375000000000000"," 3.0000000000000000","0.5625000000000000","Y","  34.000000000000000","N","N","","Y",40.0,"NORMAL","  14.0000000000000000"],["CDISCPILOT01","1181","01-701-1181","Xanomeline High Dose",81,"Xanomeline High Dose",81,"2013-12-05","2013-12-09",79,"65-80",2,"WHITE",1,"F","N","Y","Y","End of Treatment",99.0,8.0,"2013-12-12","WEEK 2"," 4.000000000000000","Alanine Aminotransferase (U/L)","ALT",24.0,"CHEM","  14.0000000000000000"," 18.0000000000000000","  -4.00000000000000000","  6.000000000000000"," 32.000000000000000"," 2.3333333333333335","0.4375000000000000"," 3.0000000000000000","0.5625000000000000","Y","  34.000000000000000","N","N","","Y",40.0,"NORMAL","  14.0000000000000000"],["CDISCPILOT01","1181","01-701-1181","Xanomeline High Dose",81,"Xanomeline High Dose",81,"2013-12-05","2013-12-09",79,"65-80",2,"WHITE",1,"F","N","Y","Y","Week 2",2.0,8.0,"2013-12-12","WEEK 2"," 4.000000000000000","Aspartate Aminotransferase (U/L)","AST",25.0,"CHEM","  23.0000000000000000"," 20.0000000000000000","   3.00000000000000000","  9.000000000000000"," 34.000000000000000"," 2.5555555555555554","0.6764705882352942"," 2.2222222222222223","0.5882352941176471","Y","  28.000000000000000","N","N","","Y",41.0,"NORMAL","  23.0000000000000000"],["CDISCPILOT01","1181","01-701-1181","Xanomeline High Dose",81,"Xanomeline High Dose",81,"2013-12-05","2013-12-09",79,"65-80",2,"WHITE",1,"F","N","Y","Y","End of Treatment",99.0,8.0,"2013-12-12","WEEK 2"," 4.000000000000000","Aspartate Aminotransferase (U/L)","AST",25.0,"CHEM","  23.0000000000000000"," 20.0000000000000000","   3.00000000000000000","  9.000000000000000"," 34.000000000000000"," 2.5555555555555554","0.6764705882352942"," 2.2222222222222223","0.5882352941176471","Y","  28.000000000000000","N","N","","Y",41.0,"NORMAL","  23.0000000000000000"],["CDISCPILOT01","1181","01-701-1181","Xanomeline High Dose",81,"Xanomeline High Dose",81,"2013-12-05","2013-12-09",79,"65-80",2,"WHITE",1,"F","N","Y","Y","Week 2",2.0,8.0,"2013-12-12","WEEK 2"," 4.000000000000000","Bilirubin (umol/L)","BILI",21.0,"CHEM","   8.5499999999999989","  5.1299999999999999","   3.41999999999999904","  3.000000000000000"," 21.000000000000000"," 2.8499999999999996","0.4071428571428571"," 1.71